sid,block_type,unitx,trial_type,frequency_type,rt.med,rt.mean,n,correctn,acc
sub101,learning,L01,random,high,504.611999996996,492.497999998886,18,18,1
sub101,learning,L01,random,low,458.284099999219,464.261616666287,8,8,1
sub101,learning,L01,regular,high,456.776750001154,455.989738888699,38,38,1
sub101,learning,L02,random,high,552.109350002866,574.592309090804,14,14,1
sub101,learning,L02,random,low,563.413600000786,542.414318180156,11,11,1
sub101,learning,L02,regular,high,522.738800000298,531.07835052064,38,38,1
sub101,learning,L03,random,high,501.539749999211,514.486949998779,19,19,1
sub101,learning,L03,random,low,487.328199997137,514.124073077535,14,14,1
sub101,learning,L03,regular,high,479.930300003616,497.025252776883,39,39,1
sub101,learning,L04,random,high,518.787949997204,566.539070832732,15,15,1
sub101,learning,L04,random,low,488.457300001755,521.241244445668,10,10,1
sub101,learning,L04,regular,high,480.506349998905,514.268379998854,39,39,1
sub101,learning,L05,random,high,498.533300000418,526.589262499329,13,13,1
sub101,learning,L05,random,low,495.548825003425,527.047006251905,10,10,1
sub101,learning,L05,regular,high,478.206575000513,488.635929375118,39,39,1
sub101,learning,L06,random,high,519.935749998695,553.225414999542,12,12,1
sub101,learning,L06,random,low,449.427299998206,456.708279999293,10,10,1
sub101,learning,L06,regular,high,374.108649997652,356.714466555325,34,34,1
sub101,learning,L07,random,high,445.555599995714,449.777318182235,17,17,1
sub101,learning,L07,random,low,463.568600003782,501.787380001042,6,6,1
sub101,learning,L07,regular,high,422.484049999184,400.265738021479,38,38,1
sub101,learning,L08,random,high,420.216299993626,443.924454544189,11,11,1
sub101,learning,L08,random,low,450.336299996707,447.70623846265,16,16,1
sub101,learning,L08,regular,high,292.624649999198,322.064890554611,29,29,1
sub101,learning,L09,random,high,498.101700002735,479.611348484909,14,14,1
sub101,learning,L09,random,low,467.652100000123,455.847409092133,12,12,1
sub101,learning,L09,regular,high,410.034249998716,406.556458854235,31,31,1
sub101,learning,L10,random,high,455.754000002344,474.407221212239,16,16,1
sub101,learning,L10,random,low,463.182950003102,474.045374999757,15,15,1
sub101,learning,L10,regular,high,312.127099998179,309.651282221603,31,31,1
sub101,learning,L11,random,high,454.13489999919,463.921027777764,17,17,1
sub101,learning,L11,random,low,453.174299997045,454.544880001049,6,6,1
sub101,learning,L11,regular,high,359.839925000415,328.670544047175,32,32,1
sub101,learning,L12,random,high,455.188499996439,449.884761111914,12,12,1
sub101,learning,L12,random,low,485.473550004826,484.664563332869,18,18,1
sub101,learning,L12,regular,high,413.632149997284,396.978611190588,34,34,1
sub101,learning,L13,random,high,428.889499999059,452.515599998878,15,15,1
sub101,learning,L13,random,low,465.176699995936,456.366114815157,12,12,1
sub101,learning,L13,regular,high,442.24634999955,426.75403593671,37,37,1
sub101,learning,L14,random,high,414.80437500104,434.144250001555,13,13,1
sub101,learning,L14,random,low,431.170600000769,432.65296249956,17,17,1
sub101,learning,L14,regular,high,416.097950001131,413.123087499609,37,37,1
sub101,learning,L15,random,high,434.056749996671,437.958509998862,10,10,1
sub101,learning,L15,random,low,446.980950004217,453.144484375571,17,17,1
sub101,learning,L15,regular,high,433.918899998389,422.776470555861,38,38,1
sub101,learning,L16,random,high,456.940949999989,458.672005553934,15,15,1
sub101,learning,L16,random,low,478.647150001052,500.244850000672,14,14,1
sub101,learning,L16,regular,high,422.622250000131,437.202734270962,38,38,1
sub101,learning,L17,random,high,470.459399999527,467.213042308196,16,16,1
sub101,learning,L17,random,low,475.330900000699,474.224057142627,9,9,1
sub101,learning,L17,regular,high,415.443500001857,410.916980834387,38,38,1
sub101,learning,L18,random,high,520.902299998852,519.839639744206,17,17,1
sub101,learning,L18,random,low,511.278900001344,521.382379999704,10,10,1
sub101,learning,L18,regular,high,406.259700001101,415.533468125947,38,38,1
sub101,learning,L19,random,high,487.737949999428,467.520772222997,18,18,1
sub101,learning,L19,random,low,518.816499999957,564.132766665959,10,10,1
sub101,learning,L19,regular,high,430.579050000233,415.284318888573,36,36,1
sub101,learning,L20,random,high,417.999199999031,445.223111364061,18,18,1
sub101,learning,L20,random,low,456.518800003323,481.948225000451,12,12,1
sub101,learning,L20,regular,high,421.903250000469,414.175432692663,37,37,1
sub101,testing,T01,random,high,416.535600001225,433.365949998216,16,16,1
sub101,testing,T01,random,low,413.852900001075,422.749734998797,12,12,1
sub101,testing,T01,regular,high,399.681300001248,403.782641110649,36,36,1
sub101,testing,T02,random,high,396.189449995291,401.505970832735,22,22,1
sub101,testing,T02,random,low,379.356600002211,425.789800001237,10,10,1
sub101,testing,T02,regular,high,362.059450002562,338.353821875406,37,37,1
sub101,testing,T03,random,high,422.579799997038,425.663203846992,16,16,1
sub101,testing,T03,random,low,371.897899996839,378.098656250131,9,9,1
sub101,testing,T03,regular,high,342.383400002291,330.005699999788,37,37,1
sub101,testing,T04,random,high,395.817749998969,418.913264285688,18,18,1
sub101,testing,T04,random,low,368.276900000637,372.06495769323,14,14,1
sub101,testing,T04,regular,high,360.015550000753,356.868494271074,38,38,1
sub101,testing,T05,random,high,387.805400001525,392.324141111264,20,20,1
sub101,testing,T05,random,low,380.810400001792,381.856733334037,7,7,1
sub101,testing,T05,regular,high,352.437849996932,347.82032510487,36,36,1
sub102,learning,L01,random,high,602.688225000293,577.266941666524,17,17,1
sub102,learning,L01,random,low,663.575000000492,641.165266666677,13,13,1
sub102,learning,L01,regular,high,441.473899998528,482.4707987777,38,38,1
sub102,learning,L02,random,high,549.346499999956,561.084883333206,17,17,1
sub102,learning,L02,random,low,572.644199999559,593.253043749769,9,9,1
sub102,learning,L02,regular,high,370.635649999713,394.137736905025,34,34,1
sub102,learning,L03,random,high,502.208600000813,519.850020833398,15,15,1
sub102,learning,L03,random,low,500.001999998858,519.634837036695,13,13,1
sub102,learning,L03,regular,high,500.446000000011,458.59009166654,38,38,1
sub102,learning,L04,random,high,536.239949999981,544.100233125118,23,23,1
sub102,learning,L04,random,low,520.14120000058,563.828580000154,8,8,1
sub102,learning,L04,regular,high,352.032100001452,364.024958589646,34,34,1
sub102,learning,L05,random,high,487.393999999767,516.129929999988,17,17,1
sub102,learning,L05,random,low,520.321349999904,526.815506249818,9,9,1
sub102,learning,L05,regular,high,360.614324999915,372.422798437573,38,38,1
sub102,learning,L06,random,high,441.075200000341,463.609706250281,16,16,1
sub102,learning,L06,random,low,495.441750000282,502.237149999587,11,11,1
sub102,learning,L06,regular,high,280.135725000946,296.262899479425,36,36,1
sub102,learning,L07,random,high,490.813399999752,481.742057575668,19,19,1
sub102,learning,L07,random,low,480.181574999733,492.315483333641,9,9,1
sub102,learning,L07,regular,high,341.475749999518,353.278310256451,39,39,1
sub102,learning,L08,random,high,494.779699999526,488.500317857058,21,21,1
sub102,learning,L08,random,low,422.161149999738,468.357981249937,9,9,1
sub102,learning,L08,regular,high,261.755499999708,275.963574166876,38,38,1
sub102,learning,L09,random,high,461.065100000269,501.66246538426,20,20,1
sub102,learning,L09,random,low,438.916199998857,461.284392856864,8,8,1
sub102,learning,L09,regular,high,214.573700000983,245.752460111249,37,37,1
sub102,learning,L10,random,high,461.476174999916,486.583908333362,17,17,1
sub102,learning,L10,random,low,443.039600000702,466.281254545141,11,11,1
sub102,learning,L10,regular,high,218.297200000052,238.281932222122,36,36,1
sub102,learning,L11,random,high,556.436099999701,566.409849999738,14,14,1
sub102,learning,L11,random,low,562.809099999868,568.592900000112,14,14,1
sub102,learning,L11,regular,high,391.70647499941,351.836761458164,35,35,1
sub102,learning,L12,random,high,516.807550000522,534.480891666798,21,21,1
sub102,learning,L12,random,low,530.78209999876,547.906340000554,7,7,1
sub102,learning,L12,regular,high,265.724300000329,273.557120118888,35,35,1
sub102,learning,L13,random,high,480.32830000011,508.765595555653,21,21,1
sub102,learning,L13,random,low,489.536924998902,515.700334999565,11,11,1
sub102,learning,L13,regular,high,246.8360999992,270.107322738498,39,39,1
sub102,learning,L14,random,high,491.169200002332,475.010609091028,12,12,1
sub102,learning,L14,random,low,580.422450000697,558.160158333976,13,13,1
sub102,learning,L14,regular,high,208.917949998977,248.406005728839,33,33,1
sub102,learning,L15,random,high,455.583800001477,462.004960256962,17,17,1
sub102,learning,L15,random,low,454.220799998439,458.427511110737,9,9,1
sub102,learning,L15,regular,high,198.245699999461,222.844042307607,24,24,1
sub102,learning,L16,random,high,462.839300002088,468.93713999998,21,21,1
sub102,learning,L16,random,low,470.031350001591,486.049058333265,7,7,1
sub102,learning,L16,regular,high,162.605400000757,171.884806666822,31,31,1
sub102,learning,L17,random,high,463.227549998919,487.33771562479,19,19,1
sub102,learning,L17,random,low,448.639400001412,468.500738095654,10,10,1
sub102,learning,L17,regular,high,169.388800000888,194.815519231037,22,22,1
sub102,learning,L18,random,high,460.731700000906,453.741136667183,18,18,1
sub102,learning,L18,random,low,463.929500001541,464.524794445323,10,10,1
sub102,learning,L18,regular,high,186.376399999062,253.95225833278,28,28,1
sub102,learning,L19,random,high,464.949799999886,496.136593137492,21,21,1
sub102,learning,L19,random,low,450.755100002425,447.080370001277,6,6,1
sub102,learning,L19,regular,high,182.178150000254,194.133973809801,22,22,1
sub102,learning,L20,random,high,444.590299997799,489.655492105253,21,21,1
sub102,learning,L20,random,low,439.522199998464,450.488444443989,10,10,1
sub102,learning,L20,regular,high,169.207025000105,224.195829761551,22,22,1
sub102,testing,T01,random,high,447.349300000496,436.255309999857,16,16,1
sub102,testing,T01,random,low,412.252099999023,438.765864286065,8,8,1
sub102,testing,T01,regular,high,354.24622499977,364.9293889583,36,36,1
sub102,testing,T02,random,high,400.933849999092,408.083846875229,19,19,1
sub102,testing,T02,random,low,418.114699998114,424.546883332368,6,6,1
sub102,testing,T02,regular,high,399.30159999858,409.859214999981,35,35,1
sub102,testing,T03,random,high,420.511249998526,418.748423610749,15,15,1
sub102,testing,T03,random,low,381.747949999408,388.396172222151,16,16,1
sub102,testing,T03,regular,high,364.58975000096,378.559946428677,37,37,1
sub102,testing,T04,random,high,394.256200001109,409.85761923105,18,18,1
sub102,testing,T04,random,low,395.342450001408,413.788260606232,16,16,1
sub102,testing,T04,regular,high,351.219950000086,385.527569047359,39,39,1
sub102,testing,T05,random,high,373.379800001203,383.625336666794,20,20,1
sub102,testing,T05,random,low,389.90560000093,389.982290476404,10,10,1
sub102,testing,T05,regular,high,375.631775000329,383.400402380673,34,34,1
sub103,learning,L01,random,high,444.4376499996,447.230571052435,20,20,1
sub103,learning,L01,random,low,446.001600001182,456.978514285895,7,7,1
sub103,learning,L01,regular,high,436.245900000358,437.037457111045,38,38,1
sub103,learning,L02,random,high,421.879199999239,414.016536666289,19,19,1
sub103,learning,L02,random,low,444.820724999772,435.592780000115,12,12,1
sub103,learning,L02,regular,high,413.578949998737,402.211056771353,39,39,1
sub103,learning,L03,random,high,432.856999999785,420.695376851924,24,24,1
sub103,learning,L03,random,low,425.957600000402,432.44124000048,7,7,1
sub103,learning,L03,regular,high,384.792374999961,384.606740000427,39,39,1
sub103,learning,L04,random,high,435.571074998734,429.109432291625,22,22,1
sub103,learning,L04,random,low,400.689399999465,407.988379166909,9,9,1
sub103,learning,L04,regular,high,393.178099999204,379.948342857235,39,39,1
sub103,learning,L05,random,high,423.831750001227,422.648951388611,19,19,1
sub103,learning,L05,random,low,419.600399998672,435.59677499934,9,9,1
sub103,learning,L05,regular,high,378.103974999249,368.423300833153,38,38,1
sub103,learning,L06,random,high,424.760649999371,422.282172726641,14,14,1
sub103,learning,L06,random,low,422.850500002824,413.483342592506,13,13,1
sub103,learning,L06,regular,high,391.411000000517,384.496853928738,38,38,1
sub103,learning,L07,random,high,420.615700000781,432.094754444188,21,21,1
sub103,learning,L07,random,low,439.413299998705,442.238833332643,7,7,1
sub103,learning,L07,regular,high,362.883900001179,365.833923222146,39,39,1
sub103,learning,L08,random,high,429.226500000368,428.420208823702,21,21,1
sub103,learning,L08,random,low,418.158399999811,434.760437500017,10,10,1
sub103,learning,L08,regular,high,367.065300000832,363.547353555514,38,38,1
sub103,learning,L09,random,high,450.992550000592,437.717086666453,23,23,1
sub103,learning,L09,random,low,420.499500000005,425.912600000326,6,6,1
sub103,learning,L09,regular,high,373.464074999902,373.876029285778,39,39,1
sub103,learning,L10,random,high,419.788600000175,420.77065138882,18,18,1
sub103,learning,L10,random,low,416.311549999591,411.42949999994,13,13,1
sub103,learning,L10,regular,high,400.527399999191,388.5014811114,39,39,1
sub103,learning,L11,random,high,421.797749999314,424.766072222054,16,16,1
sub103,learning,L11,random,low,443.028549998417,452.160718749383,11,11,1
sub103,learning,L11,regular,high,399.266399997032,393.286098958318,36,36,1
sub103,learning,L12,random,high,429.975200000627,431.442100000127,22,22,1
sub103,learning,L12,random,low,440.068699997937,438.656461111249,10,10,1
sub103,learning,L12,regular,high,391.778550001618,393.55595388877,39,39,1
sub103,learning,L13,random,high,424.930749999476,438.197021428615,17,17,1
sub103,learning,L13,random,low,423.188200000368,422.237975000371,9,9,1
sub103,learning,L13,regular,high,399.326499999006,386.031379444608,39,39,1
sub103,learning,L14,random,high,427.890550001393,434.13989230766,17,17,1
sub103,learning,L14,random,low,431.538500000897,430.014236363521,12,12,1
sub103,learning,L14,regular,high,392.461399998865,405.687833889113,37,37,1
sub103,learning,L15,random,high,437.809499999275,422.132156666946,19,19,1
sub103,learning,L15,random,low,435.546599997906,441.816983333208,11,11,1
sub103,learning,L15,regular,high,393.457399997715,396.292174444312,39,39,1
sub103,learning,L16,random,high,425.923599999805,406.948396153474,16,16,1
sub103,learning,L16,random,low,412.425200000143,430.183016666787,11,11,1
sub103,learning,L16,regular,high,407.60864999902,400.724689555888,39,39,1
sub103,learning,L17,random,high,429.403300000558,437.793585294119,23,23,1
sub103,learning,L17,random,low,422.139199999947,416.417440000078,5,5,1
sub103,learning,L17,regular,high,412.391750001007,419.437016353857,39,39,1
sub103,learning,L18,random,high,394.942649998484,402.189301282236,20,20,1
sub103,learning,L18,random,low,429.138600000442,421.17178571529,8,8,1
sub103,learning,L18,regular,high,395.535699999527,395.846259523486,39,39,1
sub103,learning,L19,random,high,403.628400003072,407.349717647187,21,21,1
sub103,learning,L19,random,low,429.909500000576,444.193583334102,6,6,1
sub103,learning,L19,regular,high,391.037449999203,398.052526222152,39,39,1
sub103,learning,L20,random,high,403.455499999836,399.633351960302,22,22,1
sub103,learning,L20,random,low,417.54580000088,413.992424999833,5,5,1
sub103,learning,L20,regular,high,398.184249998849,399.519440625026,38,38,1
sub103,testing,T01,random,high,374.099199998454,374.492570588058,21,21,1
sub103,testing,T01,random,low,351.93949999848,363.601728570887,8,8,1
sub103,testing,T01,regular,high,339.782049999485,336.976151190486,37,37,1
sub103,testing,T02,random,high,374.532799996814,371.991849999136,22,22,1
sub103,testing,T02,random,low,378.139899999951,369.105899999947,7,7,1
sub103,testing,T02,regular,high,319.758850000653,323.031782261617,38,38,1
sub103,testing,T03,random,high,378.134099998533,365.299728124569,25,25,1
sub103,testing,T03,random,low,336.898199999268,332.432835715216,8,8,1
sub103,testing,T03,regular,high,347.723599998062,342.756543888835,37,37,1
sub103,testing,T04,random,high,380.290400000376,372.148833333237,16,16,1
sub103,testing,T04,random,low,365.30540000058,363.503466667225,10,10,1
sub103,testing,T04,regular,high,312.711450002098,307.815023333476,39,39,1
sub103,testing,T05,random,high,368.862100000115,358.660790625549,17,17,1
sub103,testing,T05,random,low,336.248999999953,352.245694444314,11,11,1
sub103,testing,T05,regular,high,342.605450001429,349.873895555336,37,37,1
sub104,learning,L01,random,high,467.484100000092,494.975350000004,12,12,1
sub104,learning,L01,random,low,460.516000000098,469.896711538441,16,16,1
sub104,learning,L01,regular,high,448.919049999915,452.703741145838,38,38,1
sub104,learning,L02,random,high,481.305799999973,494.743112820477,16,16,1
sub104,learning,L02,random,low,477.769950000038,474.41520370371,13,13,1
sub104,learning,L02,regular,high,452.335725000012,455.075846874987,39,39,1
sub104,learning,L03,random,high,472.590199999786,497.983847619047,9,9,1
sub104,learning,L03,random,low,494.711199999983,497.228350000021,12,12,1
sub104,learning,L03,regular,high,477.947300000096,475.000373809517,39,39,1
sub104,learning,L04,random,high,488.593999999921,512.547076666685,21,21,1
sub104,learning,L04,random,low,480.456700000104,496.168900000005,11,11,1
sub104,learning,L04,regular,high,453.931750000265,463.039416555582,38,38,1
sub104,learning,L05,random,high,526.940400000058,520.402884615368,16,16,1
sub104,learning,L05,random,low,502.200574999961,514.177429999995,12,12,1
sub104,learning,L05,regular,high,498.447299999953,491.501154000038,37,37,1
sub104,learning,L06,random,high,467.741899999965,483.824097619109,18,18,1
sub104,learning,L06,random,low,490.678300000127,506.378333333386,11,11,1
sub104,learning,L06,regular,high,444.425650000085,460.059371666663,36,36,1
sub104,learning,L07,random,high,466.348700000026,465.74299999991,21,21,1
sub104,learning,L07,random,low,486.488799999734,479.726716666594,11,11,1
sub104,learning,L07,regular,high,451.181275000067,464.035022500085,37,37,1
sub104,learning,L08,random,high,486.04609999984,486.997745454532,14,14,1
sub104,learning,L08,random,low,485.528100000011,479.567580769246,14,14,1
sub104,learning,L08,regular,high,454.138600000078,475.637763888906,37,37,1
sub104,learning,L09,random,high,495.843300000615,501.887483333424,14,14,1
sub104,learning,L09,random,low,516.229999999723,515.702784999985,13,13,1
sub104,learning,L09,regular,high,477.193900000202,490.121051562535,37,37,1
sub104,learning,L10,random,high,465.848050000204,524.183351389019,15,15,1
sub104,learning,L10,random,low,507.495625000274,505.60576666688,9,9,1
sub104,learning,L10,regular,high,470.635700000457,479.868893888963,35,35,1
sub104,learning,L11,random,high,502.682500000447,498.452427272737,14,14,1
sub104,learning,L11,random,low,502.033400000073,524.411549999968,14,14,1
sub104,learning,L11,regular,high,482.53027499959,501.009455238159,36,36,1
sub104,learning,L12,random,high,504.817175000198,506.271880000077,16,16,1
sub104,learning,L12,random,low,496.473799999876,478.850862962847,11,11,1
sub104,learning,L12,regular,high,478.154500000073,491.070423809571,35,35,1
sub104,learning,L13,random,high,490.054599999894,497.487609090968,13,13,1
sub104,learning,L13,random,low,501.953599999979,509.771877777692,10,10,1
sub104,learning,L13,regular,high,509.798850000152,516.341841666578,31,31,1
sub104,learning,L14,random,high,473.470500000076,478.692591666686,14,14,1
sub104,learning,L14,random,low,514.203400000042,514.370072222189,12,12,1
sub104,learning,L14,regular,high,475.306700000147,482.081095888885,39,39,1
sub104,learning,L15,random,high,485.480599999846,483.510583333343,12,12,1
sub104,learning,L15,random,low,516.393099999732,529.092463636144,14,14,1
sub104,learning,L15,regular,high,469.780124999943,476.253669791693,39,39,1
sub104,learning,L16,random,high,472.6584,474.407629999971,22,22,1
sub104,learning,L16,random,low,418.177675000152,429.945718750105,9,9,1
sub104,learning,L16,regular,high,446.976399999585,477.021904444294,37,37,1
sub104,learning,L17,random,high,460.992399999668,480.327857692163,17,17,1
sub104,learning,L17,random,low,471.800899999835,485.785494871799,15,15,1
sub104,learning,L17,regular,high,456.892000000153,472.020984888862,39,39,1
sub104,learning,L18,random,high,494.139649999852,496.055920833176,14,14,1
sub104,learning,L18,random,low,467.853999999761,455.182744999866,14,14,1
sub104,learning,L18,regular,high,479.374099999859,478.017970666699,39,39,1
sub104,learning,L19,random,high,505.371599999307,535.510773076847,17,17,1
sub104,learning,L19,random,low,495.868500000142,496.774521428636,8,8,1
sub104,learning,L19,regular,high,493.314349999764,492.917492666749,39,39,1
sub104,learning,L20,random,high,484.974825000109,511.393046874957,20,20,1
sub104,learning,L20,random,low,492.569400000321,481.732911111168,9,9,1
sub104,learning,L20,regular,high,461.858199999824,465.95292333326,39,39,1
sub104,testing,T01,random,high,403.278000000682,403.794223076975,18,18,1
sub104,testing,T01,random,low,381.914749999851,377.746568750069,9,9,1
sub104,testing,T01,regular,high,340.162324999938,350.308906145836,38,38,1
sub104,testing,T02,random,high,371.093600000222,377.16883500002,13,13,1
sub104,testing,T02,random,low,380.979699999443,372.577505555354,12,12,1
sub104,testing,T02,regular,high,367.68900000061,368.733899000051,39,39,1
sub104,testing,T03,random,high,396.171800000047,411.310396153777,16,16,1
sub104,testing,T03,random,low,406.102799999644,391.716595454413,12,12,1
sub104,testing,T03,regular,high,372.074599999905,373.02771333329,36,36,1
sub104,testing,T04,random,high,365.491700000348,405.2254777777,11,11,1
sub104,testing,T04,random,low,396.669075000318,399.392995833447,14,14,1
sub104,testing,T04,regular,high,359.611475000293,374.372141666755,36,36,1
sub104,testing,T05,random,high,397.559225000123,397.452491666627,14,14,1
sub104,testing,T05,random,low,375.640199999907,405.669114286021,9,9,1
sub104,testing,T05,regular,high,377.032399999735,400.439436666653,37,37,1
sub105,learning,L01,random,high,554.642974999297,567.195053571205,19,19,1
sub105,learning,L01,random,low,579.384900003788,582.514650000828,10,10,1
sub105,learning,L01,regular,high,561.106900000596,558.2713344794,39,39,1
sub105,learning,L02,random,high,657.64554999987,669.665863332921,19,19,1
sub105,learning,L02,random,low,615.649399998802,625.045662497996,10,10,1
sub105,learning,L02,regular,high,542.65149999992,569.839494269498,37,37,1
sub105,learning,L03,random,high,582.539800001541,596.784036363908,18,18,1
sub105,learning,L03,random,low,508.93619999988,601.268007144037,8,8,1
sub105,learning,L03,regular,high,527.259399998002,541.83685964205,35,35,1
sub105,learning,L04,random,high,546.184999999241,604.655802562961,18,18,1
sub105,learning,L04,random,low,603.871700001037,673.664328573068,9,9,1
sub105,learning,L04,regular,high,566.016700002365,563.175853021266,39,39,1
sub105,learning,L05,random,high,569.411149997904,571.313351388704,20,20,1
sub105,learning,L05,random,low,574.437074999878,563.876112501021,5,5,1
sub105,learning,L05,regular,high,540.598149997095,546.142874443516,39,39,1
sub105,learning,L06,random,high,604.828125002314,603.279909376776,21,21,1
sub105,learning,L06,random,low,614.875949999259,609.922799998458,9,9,1
sub105,learning,L06,regular,high,563.74599999981,572.68430666728,37,37,1
sub105,learning,L07,random,high,566.169699999591,558.845864284584,20,20,1
sub105,learning,L07,random,low,624.542400000792,651.449968180466,12,12,1
sub105,learning,L07,regular,high,550.875625001936,550.959749047702,39,39,1
sub105,learning,L08,random,high,638.419050002995,607.134445000702,12,12,1
sub105,learning,L08,random,low,556.833299997379,589.22726428526,16,16,1
sub105,learning,L08,regular,high,557.475575000353,552.968135936908,39,39,1
sub105,learning,L09,random,high,571.446750003815,607.883891025547,16,16,1
sub105,learning,L09,random,low,632.306499996048,607.191264284276,9,9,1
sub105,learning,L09,regular,high,559.101200000441,560.083598555381,37,37,1
sub105,learning,L10,random,high,512.539649997052,523.863873332448,20,20,1
sub105,learning,L10,random,low,526.00435000204,535.319387499385,10,10,1
sub105,learning,L10,regular,high,514.087199997448,527.082066110516,39,39,1
sub105,learning,L11,random,high,570.306100002199,574.217320833365,15,15,1
sub105,learning,L11,random,low,493.462900001759,557.800387877444,17,17,1
sub105,learning,L11,regular,high,559.353349999583,549.650359523877,38,38,1
sub105,learning,L12,random,high,531.253799999831,542.660618751143,19,19,1
sub105,learning,L12,random,low,526.390999999421,535.55998333286,7,7,1
sub105,learning,L12,regular,high,518.525400002545,521.960183778461,38,38,1
sub105,learning,L13,random,high,482.36782499589,513.258599998608,18,18,1
sub105,learning,L13,random,low,524.435500003165,562.483685714791,7,7,1
sub105,learning,L13,regular,high,495.058950000384,476.850147916972,38,38,1
sub105,learning,L14,random,high,547.924925000189,600.379928572693,20,20,1
sub105,learning,L14,random,low,589.348899997276,571.32240833198,8,8,1
sub105,learning,L14,regular,high,519.820025001536,519.004686072046,39,39,1
sub105,learning,L15,random,high,543.046800004959,535.016310000194,18,18,1
sub105,learning,L15,random,low,546.103599997878,545.291589998669,10,10,1
sub105,learning,L15,regular,high,514.343000002555,528.809611666414,37,37,1
sub105,learning,L16,random,high,537.23710000304,537.260339286149,17,17,1
sub105,learning,L16,random,low,576.001299999916,597.401158331801,7,7,1
sub105,learning,L16,regular,high,504.207599995425,515.823529999478,37,37,1
sub105,learning,L17,random,high,553.983400001016,557.442520513387,18,18,1
sub105,learning,L17,random,low,521.550999997999,517.20196111152,11,11,1
sub105,learning,L17,regular,high,501.272750003409,508.921641111131,39,39,1
sub105,learning,L18,random,high,603.22609999821,599.495062500207,21,21,1
sub105,learning,L18,random,low,661.658600001829,665.652364285571,10,10,1
sub105,learning,L18,regular,high,541.480499996396,540.188970256433,38,38,1
sub105,learning,L19,random,high,547.402499996679,535.266471428258,15,15,1
sub105,learning,L19,random,low,565.010949998396,574.283342858377,9,9,1
sub105,learning,L19,regular,high,461.709899998823,452.6550954162,38,38,1
sub105,learning,L20,random,high,512.860799999544,541.628491667264,18,18,1
sub105,learning,L20,random,low,541.097499997704,528.55164444433,9,9,1
sub105,learning,L20,regular,high,514.121300002444,529.96847055656,38,38,1
sub105,testing,T01,random,high,403.70339999572,410.595931943135,17,17,1
sub105,testing,T01,random,low,384.620950000681,418.852386363472,12,12,1
sub105,testing,T01,regular,high,390.82105000125,388.07851033358,38,38,1
sub105,testing,T02,random,high,435.970050002652,439.760154167213,22,22,1
sub105,testing,T02,random,low,441.453600002205,434.162700002162,6,6,1
sub105,testing,T02,regular,high,403.903400001582,433.771056771002,39,39,1
sub105,testing,T03,random,high,430.103750000853,438.45105000067,15,15,1
sub105,testing,T03,random,low,424.111899999843,429.83655277769,15,15,1
sub105,testing,T03,regular,high,399.23060000001,397.866902023296,39,39,1
sub105,testing,T04,random,high,410.630500002299,434.391306667142,18,18,1
sub105,testing,T04,random,low,430.378349999955,439.606357140812,9,9,1
sub105,testing,T04,regular,high,419.377124999301,436.326516146293,37,37,1
sub105,testing,T05,random,high,428.577649996441,453.762949999145,19,19,1
sub105,testing,T05,random,low,395.962100003089,391.840571430553,8,8,1
sub105,testing,T05,regular,high,408.241874998566,408.432992708526,37,37,1
sub106,learning,L01,random,high,497.686974995304,512.178296873572,19,19,1
sub106,learning,L01,random,low,470.467100007227,506.067613639805,12,12,1
sub106,learning,L01,regular,high,412.991099990904,418.347713541607,37,37,1
sub106,learning,L02,random,high,466.382950005936,537.070908336722,16,16,1
sub106,learning,L02,random,low,442.30389999575,460.040675005075,11,11,1
sub106,learning,L02,regular,high,425.698500010185,421.593283665974,39,39,1
sub106,learning,L03,random,high,452.267099986784,443.933723527794,18,18,1
sub106,learning,L03,random,low,487.303174988483,479.704416662571,8,8,1
sub106,learning,L03,regular,high,409.591700008605,402.765428108687,38,38,1
sub106,learning,L04,random,high,467.035299996496,469.532274356402,16,16,1
sub106,learning,L04,random,low,479.110475003836,492.686266671323,8,8,1
sub106,learning,L04,regular,high,415.768349994323,411.306854333347,38,38,1
sub106,learning,L05,random,high,453.060100000585,453.382033333764,19,19,1
sub106,learning,L05,random,low,479.877600017062,497.683020837333,14,14,1
sub106,learning,L05,regular,high,375.003974993888,388.179988542106,39,39,1
sub106,learning,L06,random,high,462.985875012237,455.304294793374,22,22,1
sub106,learning,L06,random,low,452.705500007141,443.391879997216,5,5,1
sub106,learning,L06,regular,high,407.942900026683,416.3072877819,39,39,1
sub106,learning,L07,random,high,475.92650000297,478.160608331261,21,21,1
sub106,learning,L07,random,low,471.139200002654,462.264142859827,7,7,1
sub106,learning,L07,regular,high,405.315349999,405.008662671025,38,38,1
sub106,learning,L08,random,high,460.860199993476,491.771814283441,19,19,1
sub106,learning,L08,random,low,455.176599993138,445.311442851172,8,8,1
sub106,learning,L08,regular,high,396.64890000131,408.490758886102,39,39,1
sub106,learning,L09,random,high,457.90924999892,464.842899998725,20,20,1
sub106,learning,L09,random,low,454.547399975127,451.754739996977,5,5,1
sub106,learning,L09,regular,high,374.810300010722,387.325559528281,37,37,1
sub106,learning,L10,random,high,458.180699992226,462.469206249807,19,19,1
sub106,learning,L10,random,low,446.008049999364,452.199947914172,11,11,1
sub106,learning,L10,regular,high,275.288800010458,302.343017778023,39,39,1
sub106,learning,L11,random,high,454.50295000046,452.1560708381,13,13,1
sub106,learning,L11,random,low,480.273599998327,467.084755004908,11,11,1
sub106,learning,L11,regular,high,252.621399995405,263.471528667109,35,35,1
sub106,learning,L12,random,high,415.332700009458,418.342215384025,15,15,1
sub106,learning,L12,random,low,446.657350010355,453.771879171957,11,11,1
sub106,learning,L12,regular,high,326.310399999784,327.862638437212,35,35,1
sub106,learning,L13,random,high,439.101700001629,456.421580773074,22,22,1
sub106,learning,L13,random,low,493.376900005387,518.740111114716,12,12,1
sub106,learning,L13,regular,high,291.805800006841,294.417436666256,36,36,1
sub106,learning,L14,random,high,441.513699988718,447.304243752114,22,22,1
sub106,learning,L14,random,low,420.292399998289,425.563400000101,6,6,1
sub106,learning,L14,regular,high,314.334249997046,294.941463888325,38,38,1
sub106,learning,L15,random,high,444.742100022268,444.678583335675,19,19,1
sub106,learning,L15,random,low,431.935899978271,446.722499997122,7,7,1
sub106,learning,L15,regular,high,280.417300004046,295.912940113631,38,38,1
sub106,learning,L16,random,high,452.472350007156,466.104578570854,17,17,1
sub106,learning,L16,random,low,502.20105000335,517.67589721971,10,10,1
sub106,learning,L16,regular,high,297.24342499685,327.350001041547,38,38,1
sub106,learning,L17,random,high,445.677399999113,467.126865629325,19,19,1
sub106,learning,L17,random,low,469.413250000798,495.424137499261,10,10,1
sub106,learning,L17,regular,high,314.849149988731,321.990248334057,38,38,1
sub106,learning,L18,random,high,486.810999995214,495.621826919467,17,17,1
sub106,learning,L18,random,low,525.096899989876,541.841574999125,8,8,1
sub106,learning,L18,regular,high,332.298749985057,326.263217779407,38,38,1
sub106,learning,L19,random,high,428.024324995931,445.696361111509,23,23,1
sub106,learning,L19,random,low,464.10399999877,464.086275002046,8,8,1
sub106,learning,L19,regular,high,306.682499998715,297.364277979622,35,35,1
sub106,learning,L20,random,high,507.104899996193,543.462788457803,16,16,1
sub106,learning,L20,random,low,498.504174996924,596.370941675559,8,8,1
sub106,learning,L20,regular,high,347.504399993341,341.028458888306,38,38,1
sub106,testing,T01,random,high,351.765049999813,352.508918750573,17,17,1
sub106,testing,T01,random,low,362.560250010574,364.480605551055,11,11,1
sub106,testing,T01,regular,high,324.585099995602,323.822319791361,37,37,1
sub106,testing,T02,random,high,363.418499997351,372.572252936901,21,21,1
sub106,testing,T02,random,low,374.351550010033,392.082662499888,8,8,1
sub106,testing,T02,regular,high,350.686499994481,343.332820003626,38,38,1
sub106,testing,T03,random,high,361.837249991368,367.996289282538,15,15,1
sub106,testing,T03,random,low,376.936000015121,383.449105558814,10,10,1
sub106,testing,T03,regular,high,340.892149994033,349.421720997683,37,37,1
sub106,testing,T04,random,high,368.171399997664,370.766263330976,22,22,1
sub106,testing,T04,random,low,394.979399992735,418.859008335858,7,7,1
sub106,testing,T04,regular,high,351.565299992217,350.845448016025,38,38,1
sub106,testing,T05,random,high,351.053150006919,352.728812820995,23,23,1
sub106,testing,T05,random,low,362.477599992417,361.926657145627,8,8,1
sub106,testing,T05,regular,high,351.020350004546,343.956533052955,37,37,1
sub107,learning,L01,random,high,553.212800004985,575.140179996379,17,17,1
sub107,learning,L01,random,low,538.22565000155,558.201113333538,12,12,1
sub107,learning,L01,regular,high,458.879999991041,467.138071000227,37,37,1
sub107,learning,L02,random,high,557.274124992546,553.382709369544,21,21,1
sub107,learning,L02,random,low,567.726699984632,566.805842856411,7,7,1
sub107,learning,L02,regular,high,491.063050023513,492.698083858159,35,35,1
sub107,learning,L03,random,high,512.809899984859,537.551603330454,20,20,1
sub107,learning,L03,random,low,569.605049968232,557.083625004452,11,11,1
sub107,learning,L03,regular,high,494.972149987007,507.713602264647,36,36,1
sub107,learning,L04,random,high,558.401299989782,554.868156241961,20,20,1
sub107,learning,L04,random,low,549.31430000579,533.350672728954,12,12,1
sub107,learning,L04,regular,high,483.612650015857,474.303009438316,37,37,1
sub107,learning,L05,random,high,522.290475026239,516.487517861866,17,17,1
sub107,learning,L05,random,low,543.909900006838,543.29341666178,13,13,1
sub107,learning,L05,regular,high,488.453300029505,491.480926781272,37,37,1
sub107,learning,L06,random,high,503.480699990178,508.367953123525,22,22,1
sub107,learning,L06,random,low,534.682450001128,530.2545500017,4,4,1
sub107,learning,L06,regular,high,497.650025019539,496.089011901599,36,36,1
sub107,learning,L07,random,high,549.443974989117,573.296860708589,20,20,1
sub107,learning,L07,random,low,560.42375000834,547.470806242927,10,10,1
sub107,learning,L07,regular,high,485.372199967969,498.950082223746,37,37,1
sub107,learning,L08,random,high,530.09800001746,536.848089398435,19,19,1
sub107,learning,L08,random,low,529.107150010532,533.64721001708,6,6,1
sub107,learning,L08,regular,high,472.613425008603,486.105808690246,38,38,1
sub107,learning,L09,random,high,558.482775013545,562.280282141208,19,19,1
sub107,learning,L09,random,low,528.641949975281,536.141908310431,8,8,1
sub107,learning,L09,regular,high,497.99884998356,497.899907602975,38,38,1
sub107,learning,L10,random,high,526.601599995047,537.187942702076,20,20,1
sub107,learning,L10,random,low,577.75647501694,616.076675007207,10,10,1
sub107,learning,L10,regular,high,492.237600003136,476.494572665284,37,37,1
sub107,learning,L11,random,high,526.74685002421,535.095745004946,14,14,1
sub107,learning,L11,random,low,540.471600019373,544.399999994891,14,14,1
sub107,learning,L11,regular,high,441.684699995676,409.327536153205,35,35,1
sub107,learning,L12,random,high,527.752800000599,543.107823083679,17,17,1
sub107,learning,L12,random,low,570.271399978083,571.004845001153,11,11,1
sub107,learning,L12,regular,high,323.460750005324,339.069321878924,34,34,1
sub107,learning,L13,random,high,519.129299966153,537.682846669729,19,19,1
sub107,learning,L13,random,low,569.889724996756,570.466408336264,7,7,1
sub107,learning,L13,regular,high,250.291899996228,281.991484520924,36,36,1
sub107,learning,L14,random,high,514.093400037382,526.219466668166,19,19,1
sub107,learning,L14,random,low,532.752799976151,585.509171435011,7,7,1
sub107,learning,L14,regular,high,226.209349988494,286.952742709218,36,36,1
sub107,learning,L15,random,high,515.05422500486,545.131047616624,19,19,1
sub107,learning,L15,random,low,554.593150009168,602.689399995143,7,7,1
sub107,learning,L15,regular,high,363.242199993692,370.567533588007,38,38,1
sub107,learning,L16,random,high,535.934099985752,529.982378129716,20,20,1
sub107,learning,L16,random,low,515.776599990204,515.759450005135,8,8,1
sub107,learning,L16,regular,high,204.476149985567,242.960751325267,34,34,1
sub107,learning,L17,random,high,498.676999966847,513.019332684612,19,19,1
sub107,learning,L17,random,low,496.773799997754,510.677859990392,5,5,1
sub107,learning,L17,regular,high,241.617600026075,271.984638948116,39,39,1
sub107,learning,L18,random,high,563.607399963075,584.460696290652,29,29,1
sub107,learning,L18,random,low,616.627125011291,616.627125011291,3,3,1
sub107,learning,L18,regular,high,329.022225007066,353.209998583424,38,38,1
sub107,learning,L19,random,high,572.304574990994,566.165205955345,17,17,1
sub107,learning,L19,random,low,497.798399999738,508.587757125497,7,7,1
sub107,learning,L19,regular,high,246.184750023531,275.798872702338,38,38,1
sub107,learning,L20,random,high,494.127450016094,514.325090473341,19,19,1
sub107,learning,L20,random,low,568.593300005887,539.239299990835,7,7,1
sub107,learning,L20,regular,high,239.704650011845,264.266488331163,36,36,1
sub107,testing,T01,random,high,345.928524984629,379.706241663371,24,24,1
sub107,testing,T01,random,low,346.130775011261,353.376737497456,6,6,1
sub107,testing,T01,regular,high,333.865150008933,337.858022620605,38,38,1
sub107,testing,T02,random,high,351.314100000309,362.48226785392,15,15,1
sub107,testing,T02,random,low,334.604699979536,355.249771428394,9,9,1
sub107,testing,T02,regular,high,333.272199961357,351.449792001836,39,39,1
sub107,testing,T03,random,high,379.874399979599,399.131393742209,20,20,1
sub107,testing,T03,random,low,367.206800030544,375.445200008107,6,6,1
sub107,testing,T03,regular,high,210.095724993153,245.993746871742,33,33,1
sub107,testing,T04,random,high,373.518725027679,379.191878137135,19,19,1
sub107,testing,T04,random,low,344.610150001245,355.64667499663,7,7,1
sub107,testing,T04,regular,high,189.835400014999,221.161826049865,32,32,1
sub107,testing,T05,random,high,380.516999983229,401.588387492666,19,19,1
sub107,testing,T05,random,low,345.436599978711,344.929459999548,7,7,1
sub107,testing,T05,regular,high,183.798849990126,215.872624445021,34,34,1
sub108,learning,L01,random,high,586.227899999358,621.552279164462,13,13,1
sub108,learning,L01,random,low,575.600500000292,628.271833324106,6,6,1
sub108,learning,L01,regular,high,583.082274992194,584.891634164463,36,36,1
sub108,learning,L02,random,high,590.425800008234,616.226056672167,19,19,1
sub108,learning,L02,random,low,616.097000005539,631.05694999831,5,5,1
sub108,learning,L02,regular,high,614.071599993622,623.346229169329,36,36,1
sub108,learning,L03,random,high,643.70100000815,654.577084726043,20,20,1
sub108,learning,L03,random,low,736.518299992895,766.337016665299,4,4,1
sub108,learning,L03,regular,high,634.200450003846,675.933610233568,35,35,1
sub108,learning,L04,random,high,656.186649997835,683.068305553105,21,21,1
sub108,learning,L04,random,low,573.275499991723,566.195058333202,7,7,1
sub108,learning,L04,regular,high,598.454975006462,605.334605207948,35,35,1
sub108,learning,L05,random,high,522.718699998222,539.070519233624,19,19,1
sub108,learning,L05,random,low,618.917199986754,621.477133330094,7,7,1
sub108,learning,L05,regular,high,570.454600005178,583.944338808873,38,38,1
sub108,learning,L06,random,high,519.069149988354,545.756112501598,15,15,1
sub108,learning,L06,random,low,542.860949994065,572.596564277774,8,8,1
sub108,learning,L06,regular,high,507.454225014953,512.946121666443,39,39,1
sub108,learning,L07,random,high,538.830699995742,547.911543938839,17,17,1
sub108,learning,L07,random,low,535.484299995005,537.294060609191,15,15,1
sub108,learning,L07,regular,high,498.859699990135,516.557440642142,38,38,1
sub108,learning,L08,random,high,593.60399999423,607.245809374641,23,23,1
sub108,learning,L08,random,low,569.185649990686,555.616149994118,6,6,1
sub108,learning,L08,regular,high,597.535600005358,604.639617711655,35,35,1
sub108,learning,L09,random,high,624.16094999935,631.494772621192,18,18,1
sub108,learning,L09,random,low,577.046999998856,581.71783334304,3,3,1
sub108,learning,L09,regular,high,560.72390000918,577.555301787513,35,35,1
sub108,learning,L10,random,high,531.755099975271,564.914455553258,9,9,1
sub108,learning,L10,random,low,635.412474999612,642.484466664124,8,8,1
sub108,learning,L10,regular,high,526.239874991006,553.257951039238,37,37,1
sub108,learning,L11,random,high,553.781199982041,577.995671422936,16,16,1
sub108,learning,L11,random,low,526.464599999599,526.886807408085,12,12,1
sub108,learning,L11,regular,high,521.047524998721,547.1990758347,36,36,1
sub108,learning,L12,random,high,604.814199992688,616.421228209406,20,20,1
sub108,learning,L12,random,low,525.831799997832,531.44354166822,9,9,1
sub108,learning,L12,regular,high,536.481150003965,573.259449997406,39,39,1
sub108,learning,L13,random,high,585.905600019032,594.869532355327,18,18,1
sub108,learning,L13,random,low,604.850000003353,616.944814290036,9,9,1
sub108,learning,L13,regular,high,570.200324997131,555.752243230351,37,37,1
sub108,learning,L14,random,high,573.529224995582,583.625662495251,19,19,1
sub108,learning,L14,random,low,578.034999984084,579.960766655859,3,3,1
sub108,learning,L14,regular,high,550.837449998653,547.642869375856,36,36,1
sub108,learning,L15,random,high,539.479500002926,583.852408330131,13,13,1
sub108,learning,L15,random,low,561.407350003719,576.508330002253,13,13,1
sub108,learning,L15,regular,high,527.587700009462,545.640245830873,38,38,1
sub108,learning,L16,random,high,532.232600002317,570.30319374735,18,18,1
sub108,learning,L16,random,low,500.918799982173,570.277214274808,7,7,1
sub108,learning,L16,regular,high,535.86499998346,540.019209998589,36,36,1
sub108,learning,L17,random,high,536.029200004123,559.253419048175,18,18,1
sub108,learning,L17,random,low,592.790800001239,633.672933336735,4,4,1
sub108,learning,L17,regular,high,498.547799994412,527.706580360245,34,34,1
sub108,learning,L18,random,high,546.292449987959,578.98629583724,15,15,1
sub108,learning,L18,random,low,530.824899993604,525.595957138908,7,7,1
sub108,learning,L18,regular,high,525.62040000339,528.154501671896,32,32,1
sub108,learning,L19,random,high,559.482200013008,592.922978789747,17,17,1
sub108,learning,L19,random,low,548.659949985449,576.17272499192,8,8,1
sub108,learning,L19,regular,high,517.717250011629,514.905495447553,33,33,1
sub108,learning,L20,random,high,570.23680000566,600.394541174561,25,25,1
sub108,learning,L20,random,low,544.178349999129,555.438199997298,5,5,1
sub108,learning,L20,regular,high,515.355449992057,524.891435712821,35,35,1
sub108,testing,T01,random,high,389.838600000076,397.572025000045,10,10,1
sub108,testing,T01,random,low,406.330749989138,408.655508335667,17,17,1
sub108,testing,T01,regular,high,384.941999989678,396.577984443057,39,39,1
sub108,testing,T02,random,high,384.717400011141,385.254095454002,16,16,1
sub108,testing,T02,random,low,381.944649998331,382.137872229375,9,9,1
sub108,testing,T02,regular,high,393.808250002621,383.283850238686,37,37,1
sub108,testing,T03,random,high,392.266299997573,391.700791659484,17,17,1
sub108,testing,T03,random,low,396.846674993867,393.999305002217,12,12,1
sub108,testing,T03,regular,high,397.585700004129,390.954023213999,34,34,1
sub108,testing,T04,random,high,397.240100006457,391.518443331006,18,18,1
sub108,testing,T04,random,low,397.067999991123,404.669087500224,8,8,1
sub108,testing,T04,regular,high,382.440850007697,382.222488019124,37,37,1
sub108,testing,T05,random,high,397.03064999776,409.592787499605,21,21,1
sub108,testing,T05,random,low,400.366674992256,392.734900000505,6,6,1
sub108,testing,T05,regular,high,373.689100000775,379.852877602025,35,35,1
sub109,learning,L01,random,high,590.344299998833,576.613015151727,19,19,1
sub109,learning,L01,random,low,674.257299979217,659.162390738385,13,13,1
sub109,learning,L01,regular,high,541.865949999192,539.149870002473,37,37,1
sub109,learning,L02,random,high,652.320950001013,658.744919043134,21,21,1
sub109,learning,L02,random,low,593.144149999716,615.701075003017,8,8,1
sub109,learning,L02,regular,high,552.153625001665,566.868816663676,39,39,1
sub109,learning,L03,random,high,511.575550008274,583.234042863686,17,17,1
sub109,learning,L03,random,low,586.207299988018,605.905757140135,7,7,1
sub109,learning,L03,regular,high,556.692299986025,567.553633971861,39,39,1
sub109,learning,L04,random,high,611.273600021377,607.635224360424,18,18,1
sub109,learning,L04,random,low,644.973524991656,653.461634999258,12,12,1
sub109,learning,L04,regular,high,528.758300002664,551.695353885427,37,37,1
sub109,learning,L05,random,high,524.508749993402,573.273412499273,18,18,1
sub109,learning,L05,random,low,621.535049984232,627.223729994148,10,10,1
sub109,learning,L05,regular,high,524.456150007609,538.221084897032,38,38,1
sub109,learning,L06,random,high,517.4542000168,530.103482353939,19,19,1
sub109,learning,L06,random,low,589.155375011615,596.399625000777,11,11,1
sub109,learning,L06,regular,high,467.062949996034,474.922285417506,39,39,1
sub109,learning,L07,random,high,533.685000002151,517.602303921925,23,23,1
sub109,learning,L07,random,low,587.146500009112,579.616571423165,7,7,1
sub109,learning,L07,regular,high,410.073049992207,441.499535416976,39,39,1
sub109,learning,L08,random,high,470.734899980016,479.848955554189,11,11,1
sub109,learning,L08,random,low,570.398699986981,561.939022726041,14,14,1
sub109,learning,L08,regular,high,426.181675007683,436.380069792752,38,38,1
sub109,learning,L09,random,high,531.762250015163,555.198126192235,18,18,1
sub109,learning,L09,random,low,591.269425000064,600.673881250259,9,9,1
sub109,learning,L09,regular,high,496.546700014733,478.819375555678,39,39,1
sub109,learning,L10,random,high,506.997700023931,531.427211765892,19,19,1
sub109,learning,L10,random,low,600.042600010056,577.270316668243,12,12,1
sub109,learning,L10,regular,high,469.782849999319,477.245531768858,38,38,1
sub109,learning,L11,random,high,532.925499981502,501.101624358666,21,21,1
sub109,learning,L11,random,low,554.136000020662,569.85170000449,8,8,1
sub109,learning,L11,regular,high,433.628649989259,454.182255556225,39,39,1
sub109,learning,L12,random,high,504.915249999613,532.671368746378,17,17,1
sub109,learning,L12,random,low,527.296300017042,545.933092597773,12,12,1
sub109,learning,L12,regular,high,464.513999999326,473.681433023315,39,39,1
sub109,learning,L13,random,high,496.895600022981,527.180566672663,18,18,1
sub109,learning,L13,random,low,517.885799999931,516.865795831109,14,14,1
sub109,learning,L13,regular,high,456.822375002957,450.623808855198,39,39,1
sub109,learning,L14,random,high,457.568999991054,472.584612495666,22,22,1
sub109,learning,L14,random,low,532.327425004041,543.063356255516,12,12,1
sub109,learning,L14,regular,high,413.328600006935,415.720564880758,39,39,1
sub109,learning,L15,random,high,475.166025011276,464.670594044687,19,19,1
sub109,learning,L15,random,low,552.267100007157,567.013713638792,15,15,1
sub109,learning,L15,regular,high,417.369725000754,415.306153125584,39,39,1
sub109,learning,L16,random,high,558.909300001687,528.381623338404,19,19,1
sub109,learning,L16,random,low,539.024200006679,556.410385003255,14,14,1
sub109,learning,L16,regular,high,449.688650012831,435.892258854286,37,37,1
sub109,learning,L17,random,high,473.851150003611,495.374537774802,22,22,1
sub109,learning,L17,random,low,645.295099995565,654.095271431808,7,7,1
sub109,learning,L17,regular,high,433.454275007534,465.761675952741,39,39,1
sub109,learning,L18,random,high,472.67479999573,509.533065558773,22,22,1
sub109,learning,L18,random,low,574.548100004904,577.955800002591,8,8,1
sub109,learning,L18,regular,high,462.325275009789,464.793167740226,38,38,1
sub109,learning,L19,random,high,524.87029999611,529.775490002552,17,17,1
sub109,learning,L19,random,low,521.447599996463,552.546756944745,16,16,1
sub109,learning,L19,regular,high,405.317150012706,422.300165590319,39,39,1
sub109,learning,L20,random,high,512.104699999327,490.380822615061,19,19,1
sub109,learning,L20,random,low,556.70435000502,553.869109999505,10,10,1
sub109,learning,L20,regular,high,405.587574998208,422.265152917832,39,39,1
sub109,testing,T01,random,high,401.697199995397,391.789849999417,20,20,1
sub109,testing,T01,random,low,417.287000018405,414.297633335486,9,9,1
sub109,testing,T01,regular,high,339.883900000132,335.821537292941,38,38,1
sub109,testing,T02,random,high,373.784700001124,381.18275666687,19,19,1
sub109,testing,T02,random,low,389.231799999834,383.567861103479,14,14,1
sub109,testing,T02,regular,high,359.988374999375,359.085877606049,38,38,1
sub109,testing,T03,random,high,368.373700010125,370.481550000312,13,13,1
sub109,testing,T03,random,low,376.285299993469,377.645778334894,14,14,1
sub109,testing,T03,regular,high,349.960849998752,359.396573654302,39,39,1
sub109,testing,T04,random,high,343.301849999989,343.584337498214,21,21,1
sub109,testing,T04,random,low,375.799100002041,367.832933334284,6,6,1
sub109,testing,T04,regular,high,360.242499984452,356.038231025816,39,39,1
sub109,testing,T05,random,high,383.017550004297,377.897936664522,17,17,1
sub109,testing,T05,random,low,375.063399987994,377.875683327956,11,11,1
sub109,testing,T05,regular,high,360.522299990407,374.357511191366,38,38,1
sub110,learning,L01,random,high,524.436200001219,529.206226666671,15,15,1
sub110,learning,L01,random,low,632.931099997222,638.633199998367,12,12,1
sub110,learning,L01,regular,high,486.725249997107,499.042698437317,38,38,1
sub110,learning,L02,random,high,460.594649997802,469.996278572061,18,18,1
sub110,learning,L02,random,low,480.090499997459,470.676104164644,10,10,1
sub110,learning,L02,regular,high,448.513549996278,431.057960223196,39,39,1
sub110,learning,L03,random,high,453.813900003297,485.154490740738,22,22,1
sub110,learning,L03,random,low,469.052499996906,547.191590476446,9,9,1
sub110,learning,L03,regular,high,448.421599998255,433.648039888681,39,39,1
sub110,learning,L04,random,high,493.477299998631,515.273646874675,22,22,1
sub110,learning,L04,random,low,502.789875003145,505.235324999982,7,7,1
sub110,learning,L04,regular,high,489.755950002291,493.46167187476,39,39,1
sub110,learning,L05,random,high,468.698400003632,481.138480000421,18,18,1
sub110,learning,L05,random,low,468.433899997763,468.925949999175,4,4,1
sub110,learning,L05,regular,high,451.343024999005,445.13248020769,39,39,1
sub110,learning,L06,random,high,475.83140000279,489.702433335272,18,18,1
sub110,learning,L06,random,low,489.094399999885,503.10592142757,9,9,1
sub110,learning,L06,regular,high,449.081374999878,456.661132023891,38,38,1
sub110,learning,L07,random,high,475.885900006688,473.662059999818,19,19,1
sub110,learning,L07,random,low,471.268199999031,476.122037500318,10,10,1
sub110,learning,L07,regular,high,452.796425000997,443.972573230508,39,39,1
sub110,learning,L08,random,high,455.416299999342,455.384653125066,21,21,1
sub110,learning,L08,random,low,488.258800003678,492.645260000791,11,11,1
sub110,learning,L08,regular,high,437.521750000087,451.250183853896,37,37,1
sub110,learning,L09,random,high,469.111450001947,478.95365714205,18,18,1
sub110,learning,L09,random,low,457.948549999856,499.951599999622,7,7,1
sub110,learning,L09,regular,high,438.729899999089,446.479006770422,39,39,1
sub110,learning,L10,random,high,467.560774997764,492.330737499287,20,20,1
sub110,learning,L10,random,low,459.764900006121,502.442054545761,12,12,1
sub110,learning,L10,regular,high,463.82690000064,478.512935938094,38,38,1
sub110,learning,L11,random,high,489.235824998104,495.055302082847,23,23,1
sub110,learning,L11,random,low,485.364099997241,474.402399999235,6,6,1
sub110,learning,L11,regular,high,471.245150001778,480.262113443742,37,37,1
sub110,learning,L12,random,high,485.177850001492,509.570359167992,27,27,1
sub110,learning,L12,random,low,466.692725001849,462.819975001063,7,7,1
sub110,learning,L12,regular,high,445.875700002944,440.49860812598,38,38,1
sub110,learning,L13,random,high,517.761099999916,522.226013541285,24,24,1
sub110,learning,L13,random,low,537.514200004807,561.593685713888,7,7,1
sub110,learning,L13,regular,high,459.421425002802,462.627801785987,37,37,1
sub110,learning,L14,random,high,483.798599998409,481.538533331332,20,20,1
sub110,learning,L14,random,low,483.984200000123,501.126749998158,8,8,1
sub110,learning,L14,regular,high,476.176099997247,464.098579555519,38,38,1
sub110,learning,L15,random,high,463.523599995824,478.747790000812,19,19,1
sub110,learning,L15,random,low,463.259024998479,518.394800000048,8,8,1
sub110,learning,L15,regular,high,443.317299999762,457.512012777847,38,38,1
sub110,learning,L16,random,high,482.816649997403,485.375390624768,22,22,1
sub110,learning,L16,random,low,487.208799997461,491.644657142128,10,10,1
sub110,learning,L16,regular,high,452.623099998164,478.070415666459,39,39,1
sub110,learning,L17,random,high,539.846750001743,545.36096785757,18,18,1
sub110,learning,L17,random,low,466.361749997304,467.588416665725,6,6,1
sub110,learning,L17,regular,high,453.803000000335,449.121991111355,39,39,1
sub110,learning,L18,random,high,465.440500003751,478.115254762608,25,25,1
sub110,learning,L18,random,low,484.044249998988,493.585250000251,4,4,1
sub110,learning,L18,regular,high,461.246450002363,453.474373555865,39,39,1
sub110,learning,L19,random,high,466.625074999683,464.05519881011,18,18,1
sub110,learning,L19,random,low,500.163900003827,501.075727274424,11,11,1
sub110,learning,L19,regular,high,466.387349999422,460.234295729318,39,39,1
sub110,learning,L20,random,high,458.16780000132,463.085297498583,17,17,1
sub110,learning,L20,random,low,454.395799999475,486.852797915769,12,12,1
sub110,learning,L20,regular,high,450.003600002674,451.601942050454,38,38,1
sub110,testing,T01,random,high,399.141900001268,409.627172223312,20,20,1
sub110,testing,T01,random,low,399.590200002422,417.524646665455,7,7,1
sub110,testing,T01,regular,high,388.576000004832,409.398602222346,38,38,1
sub110,testing,T02,random,high,410.477299999911,403.022460000244,22,22,1
sub110,testing,T02,random,low,379.700950001279,397.023229999468,10,10,1
sub110,testing,T02,regular,high,364.850524996655,372.761059047349,37,37,1
sub110,testing,T03,random,high,395.725449998281,402.77537307674,16,16,1
sub110,testing,T03,random,low,396.421400000691,401.509088888512,9,9,1
sub110,testing,T03,regular,high,390.245499998855,405.035453333646,39,39,1
sub110,testing,T04,random,high,407.175500004087,409.423158824639,21,21,1
sub110,testing,T04,random,low,397.54135000112,398.405793750044,9,9,1
sub110,testing,T04,regular,high,364.27520000143,386.082789444683,39,39,1
sub110,testing,T05,random,high,390.710024999862,401.117480554502,19,19,1
sub110,testing,T05,random,low,403.23675000036,413.764133331521,6,6,1
sub110,testing,T05,regular,high,378.843000002235,382.573654688258,38,38,1
sub111,learning,L01,random,high,503.205874998457,510.857667857116,17,17,1
sub111,learning,L01,random,low,405.124249999062,469.113616666922,7,7,1
sub111,learning,L01,regular,high,274.236799996288,317.024271667591,29,29,1
sub111,learning,L02,random,high,462.499000001117,465.373999998682,16,16,1
sub111,learning,L02,random,low,444.559700001264,449.184550000064,10,10,1
sub111,learning,L02,regular,high,177.79475000134,260.607968181417,17,17,1
sub111,learning,L03,random,high,448.075750002317,456.699400000414,17,17,1
sub111,learning,L03,random,low,403.075299996999,410.922390476723,9,9,1
sub111,learning,L03,regular,high,179.523000002519,196.387986111909,26,26,1
sub111,learning,L04,random,high,462.566199998037,458.952212500056,14,14,1
sub111,learning,L04,random,low,491.993600000569,509.734949998852,11,11,1
sub111,learning,L04,regular,high,194.070000005013,261.260934444565,27,27,1
sub111,learning,L05,random,high,396.98359999602,403.733576923024,16,16,1
sub111,learning,L05,random,low,410.560899996199,426.213862499935,8,8,1
sub111,learning,L05,regular,high,256.314800000837,271.625701282737,25,25,1
sub111,learning,L06,random,high,425.866449997557,428.264216666321,16,16,1
sub111,learning,L06,random,low,400.331400000141,420.181474999845,11,11,1
sub111,learning,L06,regular,high,251.183300002595,242.878247435538,21,21,1
sub111,learning,L07,random,high,438.32129999646,465.98211666464,12,12,1
sub111,learning,L07,random,low,396.42879999883,443.531050000664,9,9,1
sub111,learning,L07,regular,high,227.314750000005,248.593434524948,21,21,1
sub111,learning,L08,random,high,401.06994999951,408.640949999002,16,16,1
sub111,learning,L08,random,low,426.742800002103,451.079528572466,8,8,1
sub111,learning,L08,regular,high,182.463725001071,198.390179167594,20,20,1
sub111,learning,L09,random,high,414.840899997216,492.33084999974,11,11,1
sub111,learning,L09,random,low,431.359399997746,427.234648147903,12,12,1
sub111,learning,L09,regular,high,265.602500003297,262.642304546082,20,20,1
sub111,learning,L10,random,high,429.851524995684,431.053509372987,19,19,1
sub111,learning,L10,random,low,443.448300000455,460.088811109826,11,11,1
sub111,learning,L10,regular,high,244.996449997416,245.898724242689,18,18,1
sub111,learning,L11,random,high,387.95250000112,391.022429167909,13,13,1
sub111,learning,L11,random,low,385.953500001051,407.949140001438,6,6,1
sub111,learning,L11,regular,high,276.825049997569,279.492962121312,21,21,1
sub111,learning,L12,random,high,412.649950001651,414.430003572436,16,16,1
sub111,learning,L12,random,low,368.712999996205,401.272399998561,5,5,1
sub111,learning,L12,regular,high,303.197700002784,276.412008333197,17,17,1
sub111,learning,L13,random,high,411.996100003307,451.010661538581,20,20,1
sub111,learning,L13,random,low,457.322700000077,450.50477499899,4,4,1
sub111,learning,L13,regular,high,290.256825001052,261.668512501274,17,17,1
sub111,learning,L14,random,high,429.193000003579,426.174165385209,16,16,1
sub111,learning,L14,random,low,388.663300000189,398.325749998912,11,11,1
sub111,learning,L14,regular,high,280.639100004919,284.100678787526,14,14,1
sub111,learning,L15,random,high,430.639849997533,457.921540909989,15,15,1
sub111,learning,L15,random,low,448.135900005582,433.69397142981,7,7,1
sub111,learning,L15,regular,high,286.47820000333,282.622986363342,14,14,1
sub111,learning,L16,random,high,426.482199996826,418.849652221252,20,20,1
sub111,learning,L16,random,low,397.539949997736,407.824867854028,11,11,1
sub111,learning,L16,regular,high,235.35560000164,204.421650000936,15,15,1
sub111,learning,L17,random,high,421.659899999213,414.672508332135,19,19,1
sub111,learning,L17,random,low,450.74279999244,458.795861109037,10,10,1
sub111,learning,L17,regular,high,270.758474998729,249.113412500568,17,17,1
sub111,learning,L18,random,high,428.425399994012,418.618673683867,21,21,1
sub111,learning,L18,random,low,477.834949997487,487.820433329034,6,6,1
sub111,learning,L18,regular,high,173.596674998407,220.255814167952,20,20,1
sub111,learning,L19,random,high,429.920850001508,432.368357143007,18,18,1
sub111,learning,L19,random,low,398.916425001516,414.505387499048,10,10,1
sub111,learning,L19,regular,high,170.967425001436,204.628677777186,17,17,1
sub111,learning,L20,random,high,381.058999999368,413.658546427282,16,16,1
sub111,learning,L20,random,low,412.356749991886,409.486087495679,9,9,1
sub111,learning,L20,regular,high,245.885399999679,259.910912124641,17,17,1
sub111,testing,T01,random,high,356.07059999893,353.675399998125,17,17,1
sub111,testing,T01,random,low,352.564800006803,343.299070002831,12,12,1
sub111,testing,T01,regular,high,227.102725002624,222.607779166689,28,28,1
sub111,testing,T02,random,high,333.928899999592,347.920288462214,15,15,1
sub111,testing,T02,random,low,329.010950008524,351.190515003691,11,11,1
sub111,testing,T02,regular,high,211.174375002884,197.25534000172,12,12,1
sub111,testing,T03,random,high,334.225524999056,339.412767852212,17,17,1
sub111,testing,T03,random,low,325.087600009283,319.23008333413,11,11,1
sub111,testing,T03,regular,high,224.52240000348,208.027729999594,13,13,1
sub111,testing,T04,random,high,346.5858999989,355.3183800017,18,18,1
sub111,testing,T04,random,low,339.624800006277,352.7390750005,10,10,1
sub111,testing,T04,regular,high,274.938349997683,268.647575001523,12,12,1
sub111,testing,T05,random,high,343.805500000599,348.690825000328,16,16,1
sub111,testing,T05,random,low,334.970600000815,317.042875001789,9,9,1
sub111,testing,T05,regular,high,279.30500000366,256.817517947825,21,21,1
sub112,learning,L01,random,high,503.977400000167,517.385312499911,18,18,1
sub112,learning,L01,random,low,460.779600000024,456.16790000005,7,7,1
sub112,learning,L01,regular,high,470.552400000088,467.962809687494,39,39,1
sub112,learning,L02,random,high,512.445925000066,534.230014285743,19,19,1
sub112,learning,L02,random,low,524.652399999923,566.278685714256,9,9,1
sub112,learning,L02,regular,high,457.101250000051,489.74991111115,39,39,1
sub112,learning,L03,random,high,484.70569999995,492.359560784284,28,28,1
sub112,learning,L03,random,low,515.912650000018,520.850649999943,8,8,1
sub112,learning,L03,regular,high,466.262224999923,469.15319011901,37,37,1
sub112,learning,L04,random,high,448.536300000114,450.910760714318,16,16,1
sub112,learning,L04,random,low,455.897299999833,465.584628571508,9,9,1
sub112,learning,L04,regular,high,453.816799999913,450.566094444434,39,39,1
sub112,learning,L05,random,high,489.594800000305,501.734104385944,27,27,1
sub112,learning,L05,random,low,422.197700000197,425.983879999967,5,5,1
sub112,learning,L05,regular,high,446.622099999786,459.563667333276,39,39,1
sub112,learning,L06,random,high,488.35710000003,499.877393333342,20,20,1
sub112,learning,L06,random,low,455.123299999968,456.718091666706,7,7,1
sub112,learning,L06,regular,high,495.945199999824,485.298408333327,39,39,1
sub112,learning,L07,random,high,519.380000000183,521.861649999997,15,15,1
sub112,learning,L07,random,low,443.799200000058,451.138162500001,8,8,1
sub112,learning,L07,regular,high,477.926750000052,492.481709999998,39,39,1
sub112,learning,L08,random,high,510.232499999802,530.575736842078,23,23,1
sub112,learning,L08,random,low,491.648050000094,519.91841250009,10,10,1
sub112,learning,L08,regular,high,480.811400000107,491.53714635419,39,39,1
sub112,learning,L09,random,high,498.94679999943,487.542048412511,26,26,1
sub112,learning,L09,random,low,445.267699999931,444.644325000051,7,7,1
sub112,learning,L09,regular,high,472.619825000265,474.774111979234,38,38,1
sub112,learning,L10,random,high,483.285700000124,492.269405555635,20,20,1
sub112,learning,L10,random,low,464.90477500015,464.01969444451,10,10,1
sub112,learning,L10,regular,high,470.230799999627,478.523345000111,37,37,1
sub112,learning,L11,random,high,475.805600000058,504.056711111166,18,18,1
sub112,learning,L11,random,low,484.885199999553,522.876042857076,8,8,1
sub112,learning,L11,regular,high,463.475500000186,471.50491833332,39,39,1
sub112,learning,L12,random,high,517.47370000021,505.688982352935,20,20,1
sub112,learning,L12,random,low,481.266450000021,485.533649999929,8,8,1
sub112,learning,L12,regular,high,474.799399999938,472.040915555585,39,39,1
sub112,learning,L13,random,high,501.458299999968,504.027703645898,27,27,1
sub112,learning,L13,random,low,465.664500000457,474.486666666356,3,3,1
sub112,learning,L13,regular,high,477.86340000016,478.590184047685,39,39,1
sub112,learning,L14,random,high,505.158399999345,515.008278888661,26,26,1
sub112,learning,L14,random,low,453.235900000436,474.994049999926,4,4,1
sub112,learning,L14,regular,high,457.157900000311,477.323974404833,38,38,1
sub112,learning,L15,random,high,496.764200000143,492.249862500046,23,23,1
sub112,learning,L15,random,low,472.985199999812,459.238574999858,5,5,1
sub112,learning,L15,regular,high,454.978224999877,457.967538690447,39,39,1
sub112,learning,L16,random,high,501.821549999931,505.222912499988,17,17,1
sub112,learning,L16,random,low,460.217300000295,455.014221428558,9,9,1
sub112,learning,L16,regular,high,476.395800000319,484.053529777709,39,39,1
sub112,learning,L17,random,high,518.508750000365,506.332653333387,19,19,1
sub112,learning,L17,random,low,532.05590000016,533.508930000016,11,11,1
sub112,learning,L17,regular,high,447.893375000149,462.343681250057,39,39,1
sub112,learning,L18,random,high,494.381299999986,502.88911153841,16,16,1
sub112,learning,L18,random,low,495.757199999844,557.771845454681,12,12,1
sub112,learning,L18,regular,high,446.844399999463,455.713692333162,38,38,1
sub112,learning,L19,random,high,501.949699999841,513.271757143013,20,20,1
sub112,learning,L19,random,low,510.055200000352,520.638294444578,10,10,1
sub112,learning,L19,regular,high,482.307399999627,481.930604000008,39,39,1
sub112,learning,L20,random,high,499.710399999458,504.433594117526,19,19,1
sub112,learning,L20,random,low,529.433300000164,549.072833333311,9,9,1
sub112,learning,L20,regular,high,479.750375000322,487.429520833355,38,38,1
sub112,testing,T01,random,high,386.41994999989,393.798228703594,22,22,1
sub112,testing,T01,random,low,363.502700000026,360.904571428754,7,7,1
sub112,testing,T01,regular,high,364.253900000222,364.767804166651,39,39,1
sub112,testing,T02,random,high,387.516550000328,393.633138888921,20,20,1
sub112,testing,T02,random,low,351.195500000358,367.518766666712,13,13,1
sub112,testing,T02,regular,high,360.836049999762,366.226420833286,39,39,1
sub112,testing,T03,random,high,386.514299999817,384.689622222191,21,21,1
sub112,testing,T03,random,low,367.49325000028,377.070883333242,6,6,1
sub112,testing,T03,regular,high,379.361274999837,375.843099583233,37,37,1
sub112,testing,T04,random,high,383.421499999713,389.708018627543,24,24,1
sub112,testing,T04,random,low,353.945150000072,353.945150000072,2,2,1
sub112,testing,T04,regular,high,368.115775000206,368.323792604113,39,39,1
sub112,testing,T05,random,high,388.95064999997,395.639815625032,19,19,1
sub112,testing,T05,random,low,373.08830000029,393.95798999999,12,12,1
sub112,testing,T05,regular,high,353.484675000118,356.038263541687,39,39,1
sub113,learning,L01,random,high,560.40639999992,621.649937778582,20,20,1
sub113,learning,L01,random,low,596.960749997379,668.080249998639,9,9,1
sub113,learning,L01,regular,high,607.223974997396,586.689586978196,38,38,1
sub113,learning,L02,random,high,566.149899997981,587.954668182647,14,14,1
sub113,learning,L02,random,low,580.645600002754,563.768933332453,12,12,1
sub113,learning,L02,regular,high,510.014300001785,496.913845663065,38,38,1
sub113,learning,L03,random,high,603.256700000202,623.625840000022,19,19,1
sub113,learning,L03,random,low,627.043799999228,611.676559999978,12,12,1
sub113,learning,L03,regular,high,538.469475000966,544.634901145272,38,38,1
sub113,learning,L04,random,high,553.043899999466,569.144192856454,18,18,1
sub113,learning,L04,random,low,536.538250002195,541.702950000854,13,13,1
sub113,learning,L04,regular,high,501.613699998416,500.744892777665,37,37,1
sub113,learning,L05,random,high,529.563650001364,555.735139744241,19,19,1
sub113,learning,L05,random,low,560.659999995551,602.108433332534,11,11,1
sub113,learning,L05,regular,high,486.893724997572,493.595547023428,38,38,1
sub113,learning,L06,random,high,530.650799999421,532.486099999798,17,17,1
sub113,learning,L06,random,low,554.40064999857,570.394556250449,11,11,1
sub113,learning,L06,regular,high,502.850675004083,479.139233334513,39,39,1
sub113,learning,L07,random,high,555.111874999057,552.713507141691,19,19,1
sub113,learning,L07,random,low,542.132000002312,623.717544444339,11,11,1
sub113,learning,L07,regular,high,467.106449999847,459.758073777816,38,38,1
sub113,learning,L08,random,high,511.603300001298,539.854045369524,16,16,1
sub113,learning,L08,random,low,592.030699997849,585.07279999958,12,12,1
sub113,learning,L08,regular,high,484.87904999638,468.048019688195,38,38,1
sub113,learning,L09,random,high,548.170749996643,556.908009999218,21,21,1
sub113,learning,L09,random,low,541.707299998961,538.651350000388,7,7,1
sub113,learning,L09,regular,high,485.983274998944,465.757714062306,38,38,1
sub113,learning,L10,random,high,538.897900005395,529.483733333958,15,15,1
sub113,learning,L10,random,low,573.60420000623,590.702752382294,11,11,1
sub113,learning,L10,regular,high,478.337775002728,503.740523751541,36,36,1
sub113,learning,L11,random,high,516.668500000378,536.245255126769,20,20,1
sub113,learning,L11,random,low,566.215050002938,584.719950002182,4,4,1
sub113,learning,L11,regular,high,517.312500000116,500.587290640089,38,38,1
sub113,learning,L12,random,high,509.420099995623,512.345773334043,19,19,1
sub113,learning,L12,random,low,494.082299999718,485.560738890248,10,10,1
sub113,learning,L12,regular,high,483.46070000116,473.009789444243,35,35,1
sub113,learning,L13,random,high,521.049800001492,520.903395555878,20,20,1
sub113,learning,L13,random,low,534.443750002538,525.02180833441,13,13,1
sub113,learning,L13,regular,high,493.946274998962,495.671055728811,38,38,1
sub113,learning,L14,random,high,534.100875001968,537.649082142837,20,20,1
sub113,learning,L14,random,low,486.482799999067,470.118504760432,10,10,1
sub113,learning,L14,regular,high,445.231800000329,435.279681666119,37,37,1
sub113,learning,L15,random,high,548.189825001828,575.909571428426,22,22,1
sub113,learning,L15,random,low,568.4047499999,581.11210000061,7,7,1
sub113,learning,L15,regular,high,525.415699994483,529.106943974292,36,36,1
sub113,learning,L16,random,high,586.219250002614,579.378444444754,16,16,1
sub113,learning,L16,random,low,576.199850002013,582.8840349984,15,15,1
sub113,learning,L16,regular,high,500.866900001711,503.68377154838,39,39,1
sub113,learning,L17,random,high,541.252199996961,547.099648332975,16,16,1
sub113,learning,L17,random,low,548.361000001023,549.600068750351,9,9,1
sub113,learning,L17,regular,high,528.070000002117,553.198079166422,39,39,1
sub113,learning,L18,random,high,529.211600001872,544.993349998953,18,18,1
sub113,learning,L18,random,low,520.105300005525,561.190942858437,7,7,1
sub113,learning,L18,regular,high,478.411574997153,483.007982083018,37,37,1
sub113,learning,L19,random,high,524.421550002444,553.42413947399,23,23,1
sub113,learning,L19,random,low,614.525900000444,608.933550000074,6,6,1
sub113,learning,L19,regular,high,506.04784999814,491.087023888314,35,35,1
sub113,learning,L20,random,high,561.608200001501,584.853060000508,23,23,1
sub113,learning,L20,random,low,565.969399998721,563.396450001164,8,8,1
sub113,learning,L20,regular,high,511.65200000105,508.261497666616,37,37,1
sub113,testing,T01,random,high,362.38992500148,371.60353166643,18,18,1
sub113,testing,T01,random,low,380.918375005422,385.801418751726,9,9,1
sub113,testing,T01,regular,high,367.881750004017,374.195791779008,38,38,1
sub113,testing,T02,random,high,394.956900010584,400.681403845225,18,18,1
sub113,testing,T02,random,low,391.898599991691,386.606083329955,12,12,1
sub113,testing,T02,regular,high,361.329174997081,365.925041144995,35,35,1
sub113,testing,T03,random,high,379.490199997235,393.120824999642,19,19,1
sub113,testing,T03,random,low,357.426650007255,361.402050000834,8,8,1
sub113,testing,T03,regular,high,346.125975000177,367.776007738073,34,34,1
sub113,testing,T04,random,high,397.878499992657,391.273826668718,18,18,1
sub113,testing,T04,random,low,376.952500009793,385.125516667257,11,11,1
sub113,testing,T04,regular,high,360.115099989343,369.962873888774,36,36,1
sub113,testing,T05,random,high,383.507999998983,388.583869610396,22,22,1
sub113,testing,T05,random,low,375.27790000604,377.883137501158,10,10,1
sub113,testing,T05,regular,high,357.728450006107,366.953215000427,36,36,1
sub114,learning,L01,random,high,547.128399994108,569.889653847965,15,15,1
sub114,learning,L01,random,low,546.078699975624,568.066566653821,6,6,1
sub114,learning,L01,regular,high,356.641600024886,368.574116557041,34,34,1
sub114,learning,L02,random,high,541.958599991631,551.717800000915,18,18,1
sub114,learning,L02,random,low,579.640600000857,616.030631247365,11,11,1
sub114,learning,L02,regular,high,198.618200025521,255.782066664283,26,26,1
sub114,learning,L03,random,high,551.878899976146,583.330942223418,19,19,1
sub114,learning,L03,random,low,546.603900002083,561.847050003486,11,11,1
sub114,learning,L03,regular,high,200.875599985011,251.47413769319,30,30,1
sub114,learning,L04,random,high,538.606349990005,537.83807666623,19,19,1
sub114,learning,L04,random,low,546.188850014005,556.990750007875,6,6,1
sub114,learning,L04,regular,high,184.838899993338,187.539105560863,33,33,1
sub114,learning,L05,random,high,560.839300014777,545.926088461643,17,17,1
sub114,learning,L05,random,low,562.078750001092,542.780344995845,15,15,1
sub114,learning,L05,regular,high,246.670599997742,316.53902210942,36,36,1
sub114,learning,L06,random,high,535.172100004274,535.599772619857,22,22,1
sub114,learning,L06,random,low,521.271349985909,524.629799991089,7,7,1
sub114,learning,L06,regular,high,224.41439999966,278.33070400213,36,36,1
sub114,learning,L07,random,high,531.827499995416,524.949928128081,21,21,1
sub114,learning,L07,random,low,543.604950013105,526.144180004485,11,11,1
sub114,learning,L07,regular,high,187.737750005908,211.471619997691,27,27,1
sub114,learning,L08,random,high,555.294449994108,552.294958823682,24,24,1
sub114,learning,L08,random,low,550.049099998432,534.473600006701,4,4,1
sub114,learning,L08,regular,high,184.688824985642,193.6460711898,30,30,1
sub114,learning,L09,random,high,575.198549995548,553.914934259848,21,21,1
sub114,learning,L09,random,low,548.509025000385,563.490725003552,10,10,1
sub114,learning,L09,regular,high,225.807399983751,255.038485256172,34,34,1
sub114,learning,L10,random,high,540.171700005885,569.211285421261,21,21,1
sub114,learning,L10,random,low,560.76545000542,552.292399996077,4,4,1
sub114,learning,L10,regular,high,205.566050004563,246.356871559854,34,34,1
sub114,learning,L11,random,high,564.826499990886,585.191691105784,25,25,1
sub114,learning,L11,random,low,553.550349999568,560.202137505257,5,5,1
sub114,learning,L11,regular,high,194.214599992847,197.005705128481,25,25,1
sub114,learning,L12,random,high,549.469599995064,564.590841660296,21,21,1
sub114,learning,L12,random,low,539.283699996304,548.206438892521,10,10,1
sub114,learning,L12,regular,high,191.722999996273,203.274006666228,29,29,1
sub114,learning,L13,random,high,543.639200011967,560.638070001733,18,18,1
sub114,learning,L13,random,low,590.835149996565,591.323538333624,13,13,1
sub114,learning,L13,regular,high,192.559100018116,200.678217229466,27,27,1
sub114,learning,L14,random,high,498.427549988264,516.767018745668,18,18,1
sub114,learning,L14,random,low,570.719575000112,576.446593750006,10,10,1
sub114,learning,L14,regular,high,191.993699991144,215.241383332819,21,21,1
sub114,learning,L15,random,high,541.305000006105,544.74508666705,22,22,1
sub114,learning,L15,random,low,519.581499975175,505.770379997557,5,5,1
sub114,learning,L15,regular,high,166.526525004883,174.316545831769,26,26,1
sub114,learning,L16,random,high,537.914600005024,558.349240631287,17,17,1
sub114,learning,L16,random,low,539.453775003494,552.696169995761,12,12,1
sub114,learning,L16,regular,high,227.055500014103,235.479747781129,27,27,1
sub114,learning,L17,random,high,592.391650017817,608.145010715816,15,15,1
sub114,learning,L17,random,low,583.555450000858,608.733950006354,12,12,1
sub114,learning,L17,regular,high,187.344100006158,251.661824358356,19,19,1
sub114,learning,L18,random,high,556.78285000613,558.450912498908,16,16,1
sub114,learning,L18,random,low,625.445499987109,620.869022224926,10,10,1
sub114,learning,L18,regular,high,153.955324996787,204.600455555919,19,19,1
sub114,learning,L19,random,high,559.889700001804,574.052728569119,19,19,1
sub114,learning,L19,random,low,555.573649995495,571.962141663486,13,13,1
sub114,learning,L19,regular,high,181.500675003917,222.020979165488,22,22,1
sub114,learning,L20,random,high,545.43774999911,575.826497917357,25,25,1
sub114,learning,L20,random,low,580.470799992327,603.591439995216,5,5,1
sub114,learning,L20,regular,high,216.849774995353,226.376688192128,22,22,1
sub114,testing,T01,random,high,392.755350010702,399.229614285841,18,18,1
sub114,testing,T01,random,low,431.157800019719,434.578011905874,11,11,1
sub114,testing,T01,regular,high,212.435149995144,221.70626607199,26,26,1
sub114,testing,T02,random,high,390.608000001521,388.734963887449,22,22,1
sub114,testing,T02,random,low,401.941550007905,392.840575004811,4,4,1
sub114,testing,T02,regular,high,213.662424997892,204.949189581688,25,25,1
sub114,testing,T03,random,high,391.798750002636,400.204620829754,21,21,1
sub114,testing,T03,random,low,395.379599998705,391.683292855825,8,8,1
sub114,testing,T03,regular,high,165.195800007496,195.400102916715,24,24,1
sub114,testing,T04,random,high,385.43190000928,396.67716111257,20,20,1
sub114,testing,T04,random,low,369.747399992775,387.370771429102,8,8,1
sub114,testing,T04,regular,high,157.873774995096,170.731701390549,21,21,1
sub114,testing,T05,random,high,385.999199992511,382.760157936164,26,26,1
sub114,testing,T05,random,low,424.256900005275,418.460383339455,7,7,1
sub114,testing,T05,regular,high,140.230700024404,164.473288463808,17,17,1
sub115,learning,L01,random,high,479.617799981497,499.186019607769,21,21,1
sub115,learning,L01,random,low,516.844900004799,511.522000000696,5,5,1
sub115,learning,L01,regular,high,465.976249979576,480.166451872719,37,37,1
sub115,learning,L02,random,high,426.251899974886,443.068023077033,16,16,1
sub115,learning,L02,random,low,454.824200016446,457.659205560857,11,11,1
sub115,learning,L02,regular,high,444.613300001947,452.402579996269,37,37,1
sub115,learning,L03,random,high,545.086600002833,564.089785551833,19,19,1
sub115,learning,L03,random,low,461.631350015523,459.601450012997,4,4,1
sub115,learning,L03,regular,high,498.390349981492,498.725684579525,35,35,1
sub115,learning,L04,random,high,497.372800018638,505.578628197187,21,21,1
sub115,learning,L04,random,low,472.821199975442,488.401449996875,11,11,1
sub115,learning,L04,regular,high,470.667000045069,498.716455563554,38,38,1
sub115,learning,L05,random,high,458.294950018171,479.17789374272,22,22,1
sub115,learning,L05,random,low,455.339274994913,469.864237507863,5,5,1
sub115,learning,L05,regular,high,455.592150014127,456.861961306242,35,35,1
sub115,learning,L06,random,high,477.503550006077,473.483642294573,14,14,1
sub115,learning,L06,random,low,481.716600013897,477.185212512268,8,8,1
sub115,learning,L06,regular,high,440.976249999949,469.563284897049,38,38,1
sub115,learning,L07,random,high,473.289899993688,491.077860713371,18,18,1
sub115,learning,L07,random,low,528.920999975526,534.902224986581,6,6,1
sub115,learning,L07,regular,high,460.188249970088,485.657510380723,37,37,1
sub115,learning,L08,random,high,483.215600019321,480.226376924503,16,16,1
sub115,learning,L08,random,low,443.979550007498,449.223219996202,11,11,1
sub115,learning,L08,regular,high,453.422625010717,455.730874283334,35,35,1
sub115,learning,L09,random,high,465.716149978107,495.705756934411,17,17,1
sub115,learning,L09,random,low,492.48960003024,490.806666662037,9,9,1
sub115,learning,L09,regular,high,467.324224984623,478.51905676877,35,35,1
sub115,learning,L10,random,high,512.851200008299,494.139661771067,21,21,1
sub115,learning,L10,random,low,482.928849989548,490.122399991378,8,8,1
sub115,learning,L10,regular,high,500.069400004577,481.042041551458,36,36,1
sub115,learning,L11,random,high,491.07550001645,504.975678587687,18,18,1
sub115,learning,L11,random,low,517.642199993134,510.888413621367,12,12,1
sub115,learning,L11,regular,high,501.124724978581,509.276557285981,39,39,1
sub115,learning,L12,random,high,507.634599984158,508.795523333053,17,17,1
sub115,learning,L12,random,low,516.281999996863,521.591858341708,8,8,1
sub115,learning,L12,regular,high,495.735000004061,502.065914668492,39,39,1
sub115,learning,L13,random,high,530.186625008355,538.895278553745,18,18,1
sub115,learning,L13,random,low,523.515150009189,528.2150285701,9,9,1
sub115,learning,L13,regular,high,513.834200042766,519.600474443481,36,36,1
sub115,learning,L14,random,high,509.250600007363,511.099877284847,14,14,1
sub115,learning,L14,random,low,531.427824986167,541.160610417137,11,11,1
sub115,learning,L14,regular,high,518.519624994951,520.547098438935,34,34,1
sub115,learning,L15,random,high,561.910499993246,578.517550983188,23,23,1
sub115,learning,L15,random,low,532.703849981772,537.591224998323,10,10,1
sub115,learning,L15,regular,high,504.19075001264,522.837529684087,34,34,1
sub115,learning,L16,random,high,520.385449985042,525.958718512643,23,23,1
sub115,learning,L16,random,low,515.79049997963,533.631512487773,8,8,1
sub115,learning,L16,regular,high,502.069699985441,508.40494166801,36,36,1
sub115,learning,L17,random,high,495.170899986988,503.572554165051,20,20,1
sub115,learning,L17,random,low,472.704599960707,474.626192856314,9,9,1
sub115,learning,L17,regular,high,489.25442500331,498.155048017846,38,38,1
sub115,learning,L18,random,high,506.606799957808,499.59641058707,15,15,1
sub115,learning,L18,random,low,467.714299971703,476.414139987901,7,7,1
sub115,learning,L18,regular,high,476.77520000434,491.355581661836,37,37,1
sub115,learning,L19,random,high,502.436699985992,498.134976922302,16,16,1
sub115,learning,L19,random,low,509.92504999158,497.120612504659,10,10,1
sub115,learning,L19,regular,high,497.686799964868,502.093019051245,39,39,1
sub115,learning,L20,random,high,486.265250016004,499.085653575354,15,15,1
sub115,learning,L20,random,low,492.925375001505,501.080579172897,15,15,1
sub115,learning,L20,regular,high,460.541725027724,474.19134063451,36,36,1
sub115,testing,T01,random,high,366.75099999411,369.458983334577,19,19,1
sub115,testing,T01,random,low,387.252999993507,409.059128574362,9,9,1
sub115,testing,T01,regular,high,379.480725008762,376.311954402731,38,38,1
sub115,testing,T02,random,high,387.222399993334,383.940866656808,12,12,1
sub115,testing,T02,random,low,392.428075007047,393.971675002831,15,15,1
sub115,testing,T02,regular,high,403.68580003269,398.525186108115,38,38,1
sub115,testing,T03,random,high,361.724025002331,359.034420839938,15,15,1
sub115,testing,T03,random,low,387.410199968144,402.37882998772,6,6,1
sub115,testing,T03,regular,high,348.519950013724,357.180379767323,37,37,1
sub115,testing,T04,random,high,408.736799960025,421.936985891826,17,17,1
sub115,testing,T04,random,low,432.789300044533,411.64747222663,10,10,1
sub115,testing,T04,regular,high,425.147899979493,427.037386663557,39,39,1
sub115,testing,T05,random,high,435.451050027041,441.962821672981,16,16,1
sub115,testing,T05,random,low,444.201499980409,445.364055550373,12,12,1
sub115,testing,T05,regular,high,445.731749990955,455.474907226097,34,34,1
sub116,learning,L01,random,high,518.741550011328,522.197702776692,23,23,1
sub116,learning,L01,random,low,576.574000006076,552.949561123064,11,11,1
sub116,learning,L01,regular,high,480.651874982868,531.431126039024,38,38,1
sub116,learning,L02,random,high,589.676499977941,595.463311541467,17,17,1
sub116,learning,L02,random,low,550.09920001612,563.918375002686,7,7,1
sub116,learning,L02,regular,high,520.23000002373,525.458654448287,36,36,1
sub116,learning,L03,random,high,518.821400008164,518.315466664111,20,20,1
sub116,learning,L03,random,low,510.374250035966,551.851487514796,9,9,1
sub116,learning,L03,regular,high,491.850899998099,512.887045511609,36,36,1
sub116,learning,L04,random,high,523.777350026649,525.763028573627,17,17,1
sub116,learning,L04,random,low,564.606325016939,584.601431241026,11,11,1
sub116,learning,L04,regular,high,526.183550013229,523.235707082495,37,37,1
sub116,learning,L05,random,high,501.084149989765,516.343267859026,16,16,1
sub116,learning,L05,random,low,502.953349991003,524.066041665113,14,14,1
sub116,learning,L05,regular,high,481.67139996076,499.120897445698,37,37,1
sub116,learning,L06,random,high,480.630400008522,494.568511534733,20,20,1
sub116,learning,L06,random,low,507.312799978536,526.859850003218,8,8,1
sub116,learning,L06,regular,high,466.500200040173,465.925709447927,39,39,1
sub116,learning,L07,random,high,476.433300005738,474.880991672291,24,24,1
sub116,learning,L07,random,low,468.154199974379,471.527949986921,8,8,1
sub116,learning,L07,regular,high,452.339400013443,460.252388336812,37,37,1
sub116,learning,L08,random,high,507.599100004882,519.820468195989,15,15,1
sub116,learning,L08,random,low,470.307299983688,539.5739999949,9,9,1
sub116,learning,L08,regular,high,466.681625010097,492.132658329779,38,38,1
sub116,learning,L09,random,high,580.237800022587,556.484273075162,18,18,1
sub116,learning,L09,random,low,524.654400011059,540.113839996047,6,6,1
sub116,learning,L09,regular,high,485.917499987409,508.422183229959,36,36,1
sub116,learning,L10,random,high,528.96315001999,516.616839291861,18,18,1
sub116,learning,L10,random,low,511.843199958094,534.718033333775,9,9,1
sub116,learning,L10,regular,high,484.003199962899,490.228016663977,37,37,1
sub116,learning,L11,random,high,552.242400008254,545.192282694282,20,20,1
sub116,learning,L11,random,low,539.52599997865,512.749457149766,7,7,1
sub116,learning,L11,regular,high,510.263949981891,529.939477665531,38,38,1
sub116,learning,L12,random,high,517.334150004899,528.275713888029,16,16,1
sub116,learning,L12,random,low,613.95819997415,619.072833331302,10,10,1
sub116,learning,L12,regular,high,512.896125001134,539.803055411539,37,37,1
sub116,learning,L13,random,high,512.423050007783,520.162789290355,16,16,1
sub116,learning,L13,random,low,487.958999990951,487.56109999588,13,13,1
sub116,learning,L13,regular,high,503.17120004911,525.99833832905,36,36,1
sub116,learning,L14,random,high,441.92865001969,477.982535416231,14,14,1
sub116,learning,L14,random,low,470.21859997767,506.098795827711,13,13,1
sub116,learning,L14,regular,high,527.279850008199,527.905320944653,38,38,1
sub116,learning,L15,random,high,507.664399978239,500.770656059489,18,18,1
sub116,learning,L15,random,low,555.366050015437,542.057674996613,8,8,1
sub116,learning,L15,regular,high,504.16780001251,493.91741243812,39,39,1
sub116,learning,L16,random,high,514.515649992973,543.806210711149,18,18,1
sub116,learning,L16,random,low,537.042499985546,526.32698571376,8,8,1
sub116,learning,L16,regular,high,509.899975004373,515.313340624743,37,37,1
sub116,learning,L17,random,high,515.407675033202,522.496199995658,17,17,1
sub116,learning,L17,random,low,547.417199995834,540.470031257428,10,10,1
sub116,learning,L17,regular,high,502.043925007456,505.423876563267,33,33,1
sub116,learning,L18,random,high,549.269000010099,542.604304556417,17,17,1
sub116,learning,L18,random,low,489.299499953631,504.187428567093,8,8,1
sub116,learning,L18,regular,high,506.01415001438,511.040813091202,39,39,1
sub116,learning,L19,random,high,576.620599982562,613.689218176825,14,14,1
sub116,learning,L19,random,low,564.549599977909,586.910864280071,9,9,1
sub116,learning,L19,regular,high,532.51459999592,568.316871351878,35,35,1
sub116,learning,L20,random,high,525.295899977209,556.207952560493,17,17,1
sub116,learning,L20,random,low,540.822749986546,559.121440001763,13,13,1
sub116,learning,L20,regular,high,537.637099972926,547.429222667254,36,36,1
sub116,testing,T01,random,high,371.721750008874,369.883897048353,21,21,1
sub116,testing,T01,random,low,376.878050010419,383.531370002311,12,12,1
sub116,testing,T01,regular,high,347.580975008896,355.876830207914,38,38,1
sub116,testing,T02,random,high,360.861099994509,375.667576037207,20,20,1
sub116,testing,T02,random,low,358.552300021984,373.090979992412,8,8,1
sub116,testing,T02,regular,high,357.998299994506,374.073229666618,37,37,1
sub116,testing,T03,random,high,399.297399999341,407.233460005955,11,11,1
sub116,testing,T03,random,low,387.54295000399,407.367112497013,9,9,1
sub116,testing,T03,regular,high,383.341900014784,397.982849999188,30,30,1
sub116,testing,T04,random,high,393.129700038116,382.77581922907,15,15,1
sub116,testing,T04,random,low,392.321400053334,408.995388897084,9,9,1
sub116,testing,T04,regular,high,388.818099992932,388.777548802734,32,32,1
sub116,testing,T05,random,high,343.243649986107,350.730963323925,13,13,1
sub116,testing,T05,random,low,343.224124997505,343.036797219409,10,10,1
sub116,testing,T05,regular,high,320.640299993102,351.470551921058,35,35,1
sub117,learning,L01,random,high,557.682299986482,567.699521060077,20,20,1
sub117,learning,L01,random,low,594.245799991768,615.69029998888,3,3,1
sub117,learning,L01,regular,high,560.30967499828,559.835853125454,35,35,1
sub117,learning,L02,random,high,531.636750005418,528.810063887418,24,24,1
sub117,learning,L02,random,low,601.105449983152,605.480950005585,4,4,1
sub117,learning,L02,regular,high,512.38870000816,518.985883327038,34,34,1
sub117,learning,L03,random,high,525.941250001779,521.675046871678,21,21,1
sub117,learning,L03,random,low,514.722300024005,517.312749987468,8,8,1
sub117,learning,L03,regular,high,530.048925007577,523.901824784358,34,34,1
sub117,learning,L04,random,high,521.536399959587,547.015703842939,16,16,1
sub117,learning,L04,random,low,528.247600013856,553.570566698909,3,3,1
sub117,learning,L04,regular,high,521.708300046157,526.442509454339,36,36,1
sub117,learning,L05,random,high,527.573600003962,514.11765384658,19,19,1
sub117,learning,L05,random,low,501.996724997298,517.482641667205,12,12,1
sub117,learning,L05,regular,high,508.895374994609,511.112878124429,35,35,1
sub117,learning,L06,random,high,543.080699979328,533.315773061566,17,17,1
sub117,learning,L06,random,low,522.174699988682,503.659966657223,11,11,1
sub117,learning,L06,regular,high,526.211600008537,521.835128693229,37,37,1
sub117,learning,L07,random,high,514.019249996636,506.25494333605,21,21,1
sub117,learning,L07,random,low,538.959349971265,553.423050001064,8,8,1
sub117,learning,L07,regular,high,497.786975000054,506.122948812152,36,36,1
sub117,learning,L08,random,high,500.351199996658,511.678849993041,19,19,1
sub117,learning,L08,random,low,504.367500019725,518.224875013402,8,8,1
sub117,learning,L08,regular,high,514.259199961089,516.844291660366,37,37,1
sub117,learning,L09,random,high,518.184099986684,515.309789994111,17,17,1
sub117,learning,L09,random,low,484.190199989826,504.399266656643,3,3,1
sub117,learning,L09,regular,high,514.716274978127,521.854243328077,36,36,1
sub117,learning,L10,random,high,531.963199959137,542.503617651414,26,26,1
sub117,learning,L10,random,low,559.945449989755,544.17058332668,6,6,1
sub117,learning,L10,regular,high,535.602100018878,534.860937756056,36,36,1
sub117,learning,L11,random,high,533.539049996762,540.232349999964,19,19,1
sub117,learning,L11,random,low,551.019450009335,557.750307152414,10,10,1
sub117,learning,L11,regular,high,524.2441999726,550.33117388388,38,38,1
sub117,learning,L12,random,high,488.003549980931,505.77020712912,14,14,1
sub117,learning,L12,random,low,539.899424999021,527.694312508781,15,15,1
sub117,learning,L12,regular,high,506.050700001651,516.061698433077,37,37,1
sub117,learning,L13,random,high,599.132300005294,618.310246148702,15,15,1
sub117,learning,L13,random,low,533.764499996323,614.83401999576,5,5,1
sub117,learning,L13,regular,high,581.002799997805,576.398514439481,38,38,1
sub117,learning,L14,random,high,608.468199963681,620.593248242043,24,24,1
sub117,learning,L14,random,low,635.84639999317,635.84639999317,2,2,1
sub117,learning,L14,regular,high,588.685850016191,577.093533574537,37,37,1
sub117,learning,L15,random,high,534.636500000488,574.503675762874,13,13,1
sub117,learning,L15,random,low,560.822075000033,542.881625005975,7,7,1
sub117,learning,L15,regular,high,544.43359997822,582.959139439885,35,35,1
sub117,learning,L16,random,high,526.492525008507,545.644832143028,18,18,1
sub117,learning,L16,random,low,529.207099985797,532.075200008694,5,5,1
sub117,learning,L16,regular,high,541.958799993154,584.715712226009,34,34,1
sub117,learning,L17,random,high,548.271200023009,552.119965623812,23,23,1
sub117,learning,L17,random,low,521.242699993309,509.687249985291,4,4,1
sub117,learning,L17,regular,high,542.309799973737,530.115356184875,36,36,1
sub117,learning,L18,random,high,513.946999970358,515.787579996201,16,16,1
sub117,learning,L18,random,low,562.253199983388,566.835066679805,12,12,1
sub117,learning,L18,regular,high,513.034600007813,517.23735600296,35,35,1
sub117,learning,L19,random,high,534.453399974154,540.588769444083,20,20,1
sub117,learning,L19,random,low,517.498900007922,519.089442852419,7,7,1
sub117,learning,L19,regular,high,508.649399998831,518.955783328238,35,35,1
sub117,learning,L20,random,high,548.701099993195,558.275797213557,24,24,1
sub117,learning,L20,random,low,524.069099978078,524.069099978078,1,1,1
sub117,learning,L20,regular,high,522.656549990643,537.824153211841,36,36,1
sub117,testing,T01,random,high,358.501799986698,358.331052630858,25,25,1
sub117,testing,T01,random,low,373.988099978305,368.57051999541,5,5,1
sub117,testing,T01,regular,high,352.700749994256,354.689667558479,38,38,1
sub117,testing,T02,random,high,356.457499961834,366.316535084288,24,24,1
sub117,testing,T02,random,low,351.575750013581,352.865825014305,4,4,1
sub117,testing,T02,regular,high,348.37849996984,362.850827777099,38,38,1
sub117,testing,T03,random,high,366.998699988471,368.373130201993,20,20,1
sub117,testing,T03,random,low,360.833399987314,365.580280558788,10,10,1
sub117,testing,T03,regular,high,356.223899987526,366.875699113912,39,39,1
sub117,testing,T04,random,high,390.35810000496,379.661153338384,20,20,1
sub117,testing,T04,random,low,349.546700017527,354.768247608306,10,10,1
sub117,testing,T04,regular,high,366.268525001942,366.632195230479,36,36,1
sub117,testing,T05,random,high,361.961499991594,360.643103577396,20,20,1
sub117,testing,T05,random,low,377.255350002088,373.93001250166,8,8,1
sub117,testing,T05,regular,high,359.831700043287,361.004636663387,38,38,1
sub118,learning,L01,random,high,548.035649990197,541.713529169404,13,13,1
sub118,learning,L01,random,low,554.897650028579,574.620113641934,14,14,1
sub118,learning,L01,regular,high,476.797324998188,500.900647914932,39,39,1
sub118,learning,L02,random,high,508.684900007211,524.478347787064,21,21,1
sub118,learning,L02,random,low,520.592250017216,531.346506246337,9,9,1
sub118,learning,L02,regular,high,460.931824985892,465.062060118293,38,38,1
sub118,learning,L03,random,high,507.68139999127,507.204511536447,18,18,1
sub118,learning,L03,random,low,526.903300022241,538.518733319102,11,11,1
sub118,learning,L03,regular,high,477.243300003465,481.313264446605,38,38,1
sub118,learning,L04,random,high,563.691199989989,544.936800005791,21,21,1
sub118,learning,L04,random,low,544.569700025022,570.591195446799,14,14,1
sub118,learning,L04,regular,high,458.050200002617,479.939849263489,39,39,1
sub118,learning,L05,random,high,511.174550018041,518.227607153157,19,19,1
sub118,learning,L05,random,low,472.163600003114,478.985979162341,12,12,1
sub118,learning,L05,regular,high,472.656400001142,474.682685500906,36,36,1
sub118,learning,L06,random,high,473.842600011267,486.030983335305,17,17,1
sub118,learning,L06,random,low,515.185150026809,500.730574996851,9,9,1
sub118,learning,L06,regular,high,459.863250027411,451.735338998131,39,39,1
sub118,learning,L07,random,high,478.830750013003,479.55707667085,16,16,1
sub118,learning,L07,random,low,458.510500029661,464.513133339265,12,12,1
sub118,learning,L07,regular,high,460.352525027702,454.464650837084,39,39,1
sub118,learning,L08,random,high,453.805600001942,459.994823614478,17,17,1
sub118,learning,L08,random,low,531.440049991943,517.763513645729,14,14,1
sub118,learning,L08,regular,high,446.525799983647,453.303933114447,38,38,1
sub118,learning,L09,random,high,499.405700014904,493.173376930197,15,15,1
sub118,learning,L09,random,low,468.990299967118,473.693569235575,14,14,1
sub118,learning,L09,regular,high,453.796199988574,450.15038801436,39,39,1
sub118,learning,L10,random,high,473.650649990304,475.089032139901,22,22,1
sub118,learning,L10,random,low,452.585799968801,457.582757151353,9,9,1
sub118,learning,L10,regular,high,448.376825006562,455.42576452045,37,37,1
sub118,learning,L11,random,high,485.229399986565,497.526574997109,19,19,1
sub118,learning,L11,random,low,486.929500009865,479.311168743152,9,9,1
sub118,learning,L11,regular,high,441.013000017847,451.567727396044,39,39,1
sub118,learning,L12,random,high,488.384199969005,479.434154536152,15,15,1
sub118,learning,L12,random,low,515.854275043239,503.400820004754,12,12,1
sub118,learning,L12,regular,high,472.547174998908,461.308065624811,38,38,1
sub118,learning,L13,random,high,503.646600001957,498.15843460965,15,15,1
sub118,learning,L13,random,low,471.969725011149,470.845389988972,12,12,1
sub118,learning,L13,regular,high,460.034674993949,461.64611856941,36,36,1
sub118,learning,L14,random,high,511.361900018528,524.70280333655,19,19,1
sub118,learning,L14,random,low,463.136325008236,472.670256240235,9,9,1
sub118,learning,L14,regular,high,457.608299999265,460.24420468378,38,38,1
sub118,learning,L15,random,high,479.838250001194,487.189266669642,18,18,1
sub118,learning,L15,random,low,497.418699989794,468.212971438853,11,11,1
sub118,learning,L15,regular,high,457.682900014333,444.867334445977,39,39,1
sub118,learning,L16,random,high,463.799950026441,473.552753579237,16,16,1
sub118,learning,L16,random,low,445.57729997905,467.248131833251,12,12,1
sub118,learning,L16,regular,high,453.146149986424,464.792499446452,39,39,1
sub118,learning,L17,random,high,451.685349980835,454.415131577805,22,22,1
sub118,learning,L17,random,low,430.011599964928,439.855785716126,8,8,1
sub118,learning,L17,regular,high,417.163425008766,428.240680202786,39,39,1
sub118,learning,L18,random,high,446.310949977487,468.179321425851,15,15,1
sub118,learning,L18,random,low,431.76142500306,455.637748336691,13,13,1
sub118,learning,L18,regular,high,413.883599976543,419.720122772075,38,38,1
sub118,learning,L19,random,high,472.406900022179,475.719875930938,22,22,1
sub118,learning,L19,random,low,425.79059995478,471.837389987195,7,7,1
sub118,learning,L19,regular,high,445.277200022247,439.794621102758,38,38,1
sub118,learning,L20,random,high,422.657700022683,425.127051119408,22,22,1
sub118,learning,L20,random,low,415.052899974398,424.283842855532,7,7,1
sub118,learning,L20,regular,high,421.507850012858,425.873703853176,37,37,1
sub118,testing,T01,random,high,351.580449962057,366.827871423517,25,25,1
sub118,testing,T01,random,low,345.427350024693,353.009258338716,8,8,1
sub118,testing,T01,regular,high,348.279600031674,376.514028266627,37,37,1
sub118,testing,T02,random,high,361.872699984815,376.544504550772,13,13,1
sub118,testing,T02,random,low,363.118000008399,360.991050006608,14,14,1
sub118,testing,T02,regular,high,360.955825002748,375.229849474636,39,39,1
sub118,testing,T03,random,high,369.052349997219,378.188495836285,17,17,1
sub118,testing,T03,random,low,369.462399976328,374.333212479542,8,8,1
sub118,testing,T03,regular,high,367.465000017546,376.720745833397,38,38,1
sub118,testing,T04,random,high,383.708000008483,382.155946151425,13,13,1
sub118,testing,T04,random,low,365.43259996688,390.109742841949,7,7,1
sub118,testing,T04,regular,high,359.1406000196,368.918826671951,37,37,1
sub118,testing,T05,random,high,379.916300007608,416.867886365667,17,17,1
sub118,testing,T05,random,low,358.485799981281,356.047705546694,10,10,1
sub118,testing,T05,regular,high,354.927299951669,367.682012667129,36,36,1
sub119,learning,L01,random,high,477.413299988257,472.24183076021,14,14,1
sub119,learning,L01,random,low,419.039649990737,428.294684994034,11,11,1
sub119,learning,L01,regular,high,301.976224996906,298.736473211258,32,32,1
sub119,learning,L02,random,high,414.932800005772,410.847708334687,16,16,1
sub119,learning,L02,random,low,419.45700001088,426.706727778462,10,10,1
sub119,learning,L02,regular,high,304.852300003404,289.65662884767,28,28,1
sub119,learning,L03,random,high,438.534399989294,440.258488458662,16,16,1
sub119,learning,L03,random,low,402.019500004826,418.420596292924,11,11,1
sub119,learning,L03,regular,high,278.819174993259,270.504774998179,19,19,1
sub119,learning,L04,random,high,419.073299999582,419.722175000061,13,13,1
sub119,learning,L04,random,low,418.355499998143,412.113235004654,13,13,1
sub119,learning,L04,regular,high,240.56002501311,261.612183930993,27,27,1
sub119,learning,L05,random,high,427.109699987341,432.390604444663,18,18,1
sub119,learning,L05,random,low,424.554850018467,424.896216669974,8,8,1
