sid,block_type,unitx,trial_type,frequency_type,rt.med,rt.mean,n,correctn,acc
sub101,learning,1,random,high,513.14524999907,540.753552235407,79,79,1
sub101,learning,1,random,low,491.576450000139,509.877994202975,53,53,1
sub101,learning,1,regular,high,471.492650001892,493.402863159926,193,193,1
sub101,learning,2,random,high,482.680749999418,488.560353257377,70,70,1
sub101,learning,2,random,low,467.847600000823,473.419253257844,59,59,1
sub101,learning,2,regular,high,397.925450000912,354.074635138685,163,163,1
sub101,learning,3,random,high,431.73289999686,452.186016893186,67,67,1
sub101,learning,3,random,low,455.778550000105,459.181742898564,70,70,1
sub101,learning,3,regular,high,421.137874998749,402.765581714554,178,178,1
sub101,learning,4,random,high,469.168550000177,468.12216984887,84,84,1
sub101,learning,4,random,low,486.239199999545,505.644743749483,55,55,1
sub101,learning,4,regular,high,428.432350003277,420.924135852825,187,187,1
sub101,testing,T,random,high,399.385600001551,408.356844565244,92,92,1
sub101,testing,T,random,low,376.626650002436,394.300231439571,52,52,1
sub101,testing,T,regular,high,363.915550000456,349.625333642187,184,184,1
sub102,learning,1,random,high,537.322475000565,546.12254983511,89,89,1
sub102,learning,1,random,low,538.305200000195,567.308718663942,52,52,1
sub102,learning,1,regular,high,454.232300000058,416.28634604778,182,182,1
sub102,learning,2,random,high,467.945025000063,488.616324391055,93,93,1
sub102,learning,2,random,low,467.850099999851,488.773808157657,48,48,1
sub102,learning,2,regular,high,253.71879999966,283.526160308201,186,186,1
sub102,learning,3,random,high,496.02705000143,509.787083370097,85,85,1
sub102,learning,3,random,low,522.200950000297,535.47194031399,54,54,1
sub102,learning,3,regular,high,240.736350000589,279.504091469793,166,166,1
sub102,learning,4,random,high,458.013200001005,486.62894341911,100,100,1
sub102,learning,4,random,low,457.342300001983,475.025958968573,43,43,1
sub102,learning,4,regular,high,174.79585000001,207.760315192952,125,125,1
sub102,testing,T,random,high,399.774100000286,408.955085057198,88,88,1
sub102,testing,T,random,low,390.554049999992,415.625842000021,56,56,1
sub102,testing,T,regular,high,362.319074999505,383.684083048959,181,181,1
sub103,learning,1,random,high,426.575649998995,426.392086111015,104,104,1
sub103,learning,1,random,low,429.180850000193,429.50256944451,44,44,1
sub103,learning,1,regular,high,398.893274998954,396.682533249614,193,193,1
sub103,learning,2,random,high,425.918750000164,430.381502002287,97,97,1
sub103,learning,2,random,low,422.271475000343,423.675022036817,49,49,1
sub103,learning,2,regular,high,382.445875000485,376.665111369935,193,193,1
sub103,learning,3,random,high,422.805199999857,428.568707645549,91,91,1
sub103,learning,3,random,low,438.619350001318,435.995617063478,53,53,1
sub103,learning,3,regular,high,399.30484999968,398.30896250829,190,190,1
sub103,learning,4,random,high,412.457949998498,411.039930123394,102,102,1
sub103,learning,4,random,low,424.42740000115,426.594718750399,35,35,1
sub103,learning,4,regular,high,403.608799999347,403.130754496407,194,194,1
sub103,testing,T,random,high,370.04750000051,369.245175678896,101,101,1
sub103,testing,T,random,low,344.160700002249,354.023990538934,44,44,1
sub103,testing,T,regular,high,330.652949999603,328.812623458835,188,188,1
sub104,learning,1,random,high,492.26884999996,506.711689696963,74,74,1
sub104,learning,1,random,low,479.204249999953,483.950727430549,64,64,1
sub104,learning,1,regular,high,465.501575000076,469.294410992702,191,191,1
sub104,learning,2,random,high,485.880749999978,494.891141920321,82,82,1
sub104,learning,2,random,low,489.667399999462,491.090993200034,58,58,1
sub104,learning,2,regular,high,457.081850000236,475.33998617019,182,182,1
sub104,learning,3,random,high,489.467399999739,491.174646376824,69,69,1
sub104,learning,3,random,low,513.536299999487,508.748625347159,61,61,1
sub104,learning,3,regular,high,479.353199999878,491.575504726218,180,180,1
sub104,learning,4,random,high,491.421800000353,500.597611594114,90,90,1
sub104,learning,4,random,low,469.009500000084,467.358648405814,55,55,1
sub104,learning,4,regular,high,470.463075000225,480.039182660933,193,193,1
sub104,testing,T,random,high,397.519799999827,406.763060144919,72,72,1
sub104,testing,T,random,low,378.309949999675,388.700291319482,56,56,1
sub104,testing,T,regular,high,364.715475000139,372.836484761933,186,186,1
sub105,learning,1,random,high,583.126524999898,594.290651281853,94,94,1
sub105,learning,1,random,low,591.293899997254,598.887722544258,42,42,1
sub105,learning,1,regular,high,556.13812500269,565.415188419052,189,189,1
sub105,learning,2,random,high,573.402325000643,576.088818846006,89,89,1
sub105,learning,2,random,low,597.246849996736,605.037279760966,56,56,1
sub105,learning,2,regular,high,547.26209999717,555.354390336139,191,191,1
sub105,learning,3,random,high,548.372800003563,559.3474288,90,90,1
sub105,learning,3,random,low,510.114149999936,546.869044999312,49,49,1
sub105,learning,3,regular,high,520.517725002719,518.138831449376,190,190,1
sub105,learning,4,random,high,540.134800001397,555.259114223856,89,89,1
sub105,learning,4,random,low,565.917300002184,580.637752450938,46,46,1
sub105,learning,4,regular,high,504.68062499931,506.543982381496,190,190,1
sub105,testing,T,random,high,428.463250002096,433.723382708552,91,91,1
sub105,testing,T,random,low,424.00120000093,422.364933730528,50,50,1
sub105,testing,T,regular,high,411.525424999127,414.439122761865,190,190,1
sub106,learning,1,random,high,471.45760001149,487.827124586401,88,88,1
sub106,learning,1,random,low,465.408525007661,490.098680835824,53,53,1
sub106,learning,1,regular,high,413.942750004935,408.312210008791,191,191,1
sub106,learning,2,random,high,468.182399985381,476.400693337049,101,101,1
sub106,learning,2,random,low,454.547399975127,451.270666172444,36,36,1
sub106,learning,2,regular,high,388.312499999302,380.805744690013,192,192,1
sub106,learning,3,random,high,443.287800007965,444.199264200349,91,91,1
sub106,learning,3,random,low,464.88600000157,474.301371755019,47,47,1
sub106,learning,3,regular,high,283.773449991713,295.637224817232,182,182,1
sub106,learning,4,random,high,462.615850003203,479.877011542936,92,92,1
sub106,learning,4,random,low,497.719900005905,519.935311483143,44,44,1
sub106,learning,4,regular,high,308.435700011614,323.382274944948,187,187,1
sub106,testing,T,random,high,362.430274995859,362.351562575461,98,98,1
sub106,testing,T,random,low,362.785475008423,378.212796760339,44,44,1
sub106,testing,T,regular,high,341.763775002619,341.440945724157,187,187,1
sub107,learning,1,random,high,535.211100010201,550.330876414888,95,95,1
sub107,learning,1,random,low,543.503549997695,546.198602319193,55,55,1
sub107,learning,1,regular,high,474.8006999871,482.180841130388,182,182,1
sub107,learning,2,random,high,510.836724977708,536.841110370879,100,100,1
sub107,learning,2,random,low,557.164099998772,552.369638983001,38,38,1
sub107,learning,2,regular,high,485.804649986676,490.560113838042,186,186,1
sub107,learning,3,random,high,523.882400011644,545.123967530284,88,88,1
sub107,learning,3,random,low,547.880300000543,572.847330646861,46,46,1
sub107,learning,3,regular,high,304.418500003521,338.802290015339,179,179,1
sub107,learning,4,random,high,541.5038500214,545.940687546573,104,104,1
sub107,learning,4,random,low,523.239899979672,522.876699011106,30,30,1
sub107,learning,4,regular,high,236.773649987299,277.304459645763,185,185,1
sub107,testing,T,random,high,364.989174966468,386.481513276974,97,97,1
sub107,testing,T,random,low,340.322450007079,354.664240239834,35,35,1
sub107,testing,T,regular,high,308.311500004493,273.233959801506,176,176,1
sub108,learning,1,random,high,599.200550001115,634.92715506617,92,92,1
sub108,learning,1,random,low,592.925324992393,616.628596755887,29,29,1
sub108,learning,1,regular,high,583.987049991265,611.124017287008,180,180,1
sub108,learning,2,random,high,579.687050005305,589.400967220382,82,82,1
sub108,learning,2,random,low,565.065224989667,587.701487962881,40,40,1
sub108,learning,2,regular,high,533.593949992792,559.015242787727,184,184,1
sub108,learning,3,random,high,560.982900002273,586.144431128906,86,86,1
sub108,learning,3,random,low,544.470500011812,547.405703428376,46,46,1
sub108,learning,3,regular,high,539.969325000129,548.609671798897,186,186,1
sub108,learning,4,random,high,546.053900005063,575.587245299552,93,93,1
sub108,learning,4,random,low,546.241549993283,564.742512274646,31,31,1
sub108,learning,4,regular,high,519.273450001492,530.981089754544,170,170,1
sub108,testing,T,random,high,400.988699984737,399.375859318613,82,82,1
sub108,testing,T,random,low,399.162549991161,400.19596518835,52,52,1
sub108,testing,T,regular,high,388.891599999624,385.678597937497,182,182,1
sub109,learning,1,random,high,564.784275004058,605.183866823346,93,93,1
sub109,learning,1,random,low,625.03779999679,634.394284468175,50,50,1
sub109,learning,1,regular,high,531.420375002199,549.345967476329,190,190,1
sub109,learning,2,random,high,504.322450011387,524.342069745115,90,90,1
sub109,learning,2,random,low,587.208375000046,578.645773182286,53,53,1
sub109,learning,2,regular,high,439.362574994448,459.431583415045,193,193,1
sub109,learning,3,random,high,493.775199982338,505.029930751485,97,97,1
sub109,learning,3,random,low,528.5423000023,541.196642462769,61,61,1
sub109,learning,3,regular,high,431.676624997635,442.765313120926,195,195,1
sub109,learning,4,random,high,482.092550002562,499.5693892302,99,99,1
sub109,learning,4,random,low,566.730550017383,588.582812667131,55,55,1
sub109,learning,4,regular,high,445.991924992995,440.302829840754,192,192,1
sub109,testing,T,random,high,373.530774988467,376.097570823247,90,90,1
sub109,testing,T,random,low,389.154450000206,390.54080833232,54,54,1
sub109,testing,T,regular,high,346.714025006804,357.380226481257,192,192,1
sub110,learning,1,random,high,475.838599995768,492.731455229981,95,95,1
sub110,learning,1,random,low,505.166449998797,527.014391202573,42,42,1
sub110,learning,1,regular,high,449.246275002224,465.243210976337,194,194,1
sub110,learning,2,random,high,465.268075000495,480.901834404774,96,96,1
sub110,learning,2,random,low,477.624099999957,486.508662631802,49,49,1
sub110,learning,2,regular,high,447.099250002793,454.608550853663,191,191,1
sub110,learning,3,random,high,475.780000000668,498.16034464273,113,113,1
sub110,learning,3,random,low,496.611750000739,506.400583823087,36,36,1
sub110,learning,3,regular,high,453.442999998515,461.85889870286,188,188,1
sub110,learning,4,random,high,480.829950000043,486.158653482276,100,100,1
sub110,learning,4,random,low,472.058349998406,483.329512963051,43,43,1
sub110,learning,4,regular,high,450.365350001448,458.207512249411,194,194,1
sub110,testing,T,random,high,406.159099999059,406.943800287761,98,98,1
sub110,testing,T,random,low,393.918800000392,401.017256841818,41,41,1
sub110,testing,T,regular,high,379.808974999833,390.096259690122,191,191,1
sub111,learning,1,random,high,455.975099997886,462.389157692427,80,80,1
sub111,learning,1,random,low,468.010150001646,458.253035714069,45,45,1
sub111,learning,1,regular,high,216.240850002578,257.643849910087,124,124,1
sub111,learning,2,random,high,435.091149996879,448.480032132342,74,74,1
sub111,learning,2,random,low,413.942474999203,447.974343712265,51,51,1
sub111,learning,2,regular,high,229.266225001993,245.738659278638,100,100,1
sub111,learning,3,random,high,413.123500002257,415.25880842947,80,80,1
sub111,learning,3,random,low,439.585599999191,422.162484895921,33,33,1
sub111,learning,3,regular,high,289.950750000571,280.994551036826,83,83,1
sub111,learning,4,random,high,418.030950000684,421.851986244838,94,94,1
sub111,learning,4,random,low,424.153100000694,431.030862139677,46,46,1
sub111,learning,4,regular,high,222.30309999577,245.173203624406,86,86,1
sub111,testing,T,random,high,329.71190000535,347.318701132618,83,83,1
sub111,testing,T,random,low,333.296000011615,344.83068920829,53,53,1
sub111,testing,T,regular,high,260.157450000406,236.98530674866,86,86,1
sub112,learning,1,random,high,498.283649999848,501.34383905553,108,108,1
sub112,learning,1,random,low,470.533225000168,486.588810937495,38,38,1
sub112,learning,1,regular,high,457.509649999906,466.079696111499,193,193,1
sub112,learning,2,random,high,497.812549999935,504.280033722182,104,104,1
sub112,learning,2,random,low,462.829375000183,481.595777083382,42,42,1
sub112,learning,2,regular,high,473.339300000134,478.605909658615,192,192,1
sub112,learning,3,random,high,487.939400000869,501.085728678126,114,114,1
sub112,learning,3,random,low,479.294974999675,504.490064285652,28,28,1
sub112,learning,3,regular,high,460.361499999863,470.057287689671,194,194,1
sub112,learning,4,random,high,504.150700000537,508.235169942546,91,91,1
sub112,learning,4,random,low,494.74172500004,526.124216944477,51,51,1
sub112,learning,4,regular,high,462.512574999892,474.400058559495,193,193,1
sub112,testing,T,random,high,382.93750000048,392.08307359526,106,106,1
sub112,testing,T,random,low,371.6344999998,383.255135980443,40,40,1
sub112,testing,T,regular,high,363.721675000079,366.181903168076,193,193,1
sub113,learning,1,random,high,557.772300002398,595.179626639299,90,90,1
sub113,learning,1,random,low,591.962149997926,599.614844166111,57,57,1
sub113,learning,1,regular,high,524.61735000179,526.835451163092,189,189,1
sub113,learning,2,random,high,550.381199995172,541.120323951615,88,88,1
sub113,learning,2,random,low,555.098650002037,577.475736389331,52,52,1
sub113,learning,2,regular,high,477.672724999138,480.266886367603,189,189,1
sub113,learning,3,random,high,536.386450003192,541.954894770661,101,101,1
sub113,learning,3,random,low,530.311100003019,526.243575926957,44,44,1
sub113,learning,3,regular,high,490.290199999436,495.379533129844,184,184,1
sub113,learning,4,random,high,550.231399996846,560.646333641532,96,96,1
sub113,learning,4,random,low,576.342449996446,583.3237388888,45,45,1
sub113,learning,4,regular,high,496.281925001313,501.628253661151,187,187,1
sub113,testing,T,random,high,380.944050004473,393.705143651711,95,95,1
sub113,testing,T,random,low,373.037299999851,377.41651558367,50,50,1
sub113,testing,T,regular,high,357.900599992718,370.590384369805,179,179,1
sub114,learning,1,random,high,543.98499999661,557.468875371391,88,88,1
sub114,learning,1,random,low,561.041699998896,584.64807489811,49,49,1
sub114,learning,1,regular,high,201.350799994543,267.543107209373,159,159,1
sub114,learning,2,random,high,533.207199987373,548.58002454592,109,109,1
sub114,learning,2,random,low,550.049099998432,552.525614608791,36,36,1
sub114,learning,2,regular,high,205.155325005762,238.40710538406,161,161,1
sub114,learning,3,random,high,540.728250001848,555.098364908398,104,104,1
sub114,learning,3,random,low,569.44375000603,568.400389609679,43,43,1
sub114,learning,3,regular,high,185.016624986019,206.55470948809,128,128,1
sub114,learning,4,random,high,557.050575000176,577.294314723408,92,92,1
sub114,learning,4,random,low,579.259799997089,594.178014033777,52,52,1
sub114,learning,4,regular,high,175.791949986888,228.296977873436,109,109,1
sub114,testing,T,random,high,384.617950010579,391.089778562075,107,107,1
sub114,testing,T,random,low,397.152900011861,396.95174213045,38,38,1
sub114,testing,T,regular,high,168.183150010009,197.077547054599,113,113,1
sub115,learning,1,random,high,501.950900012162,509.885257765401,99,99,1
sub115,learning,1,random,low,472.197800001595,471.425432147433,36,36,1
sub115,learning,1,regular,high,464.077799988445,475.39139186968,182,182,1
sub115,learning,2,random,high,478.492050024215,482.21441140064,86,86,1
sub115,learning,2,random,low,476.601200003643,486.308245173157,42,42,1
sub115,learning,2,regular,high,452.098775014747,471.550097539789,181,181,1
sub115,learning,3,random,high,515.825900016353,526.225288949618,90,90,1
sub115,learning,3,random,low,531.942099973094,531.522708725774,50,50,1
sub115,learning,3,regular,high,510.019299996202,513.873557529602,182,182,1
sub115,learning,4,random,high,504.109049972612,505.622763489578,89,89,1
sub115,learning,4,random,low,491.291649988852,493.63524634793,49,49,1
sub115,learning,4,regular,high,482.4064749846,493.944375747174,186,186,1
sub115,testing,T,random,high,384.383500000695,396.491272478292,79,79,1
sub115,testing,T,random,low,399.718000029679,405.274544846006,52,52,1
sub115,testing,T,regular,high,391.032974992413,404.079516221162,186,186,1
sub116,learning,1,random,high,515.635000017937,544.503252383898,93,93,1
sub116,learning,1,random,low,545.734999992419,546.985038700033,52,52,1
sub116,learning,1,regular,high,502.079075013171,524.036325892411,184,184,1
sub116,learning,2,random,high,509.575600037351,506.323105603418,95,95,1
sub116,learning,2,random,low,506.105249980465,518.832663996145,40,40,1
sub116,learning,2,regular,high,466.631075018086,485.813304856692,187,187,1
sub116,learning,3,random,high,504.95170004433,510.802258387037,84,84,1
sub116,learning,3,random,low,516.620349997538,527.981475996106,51,51,1
sub116,learning,3,regular,high,502.757574999123,525.505129876685,188,188,1
sub116,learning,4,random,high,541.809025002294,558.314492211122,83,83,1
sub116,learning,4,random,low,540.822749986546,541.352107117806,48,48,1
sub116,learning,4,regular,high,525.815750006586,534.671194661054,180,180,1
sub116,testing,T,random,high,369.211899960646,381.681465261189,80,80,1
sub116,testing,T,random,low,368.093500030227,388.651723410779,48,48,1
sub116,testing,T,regular,high,353.525824990356,373.3188869531,172,172,1
sub117,learning,1,random,high,537.296249996871,539.062773160022,100,100,1
sub117,learning,1,random,low,523.520950024249,538.078315954356,30,30,1
sub117,learning,1,regular,high,525.978949997807,527.861771970022,174,174,1
sub117,learning,2,random,high,515.277149999747,526.601530067519,100,100,1
sub117,learning,2,random,low,521.011249977164,527.321949996986,36,36,1
sub117,learning,2,regular,high,507.064150006045,520.401443283895,182,182,1
sub117,learning,3,random,high,551.024599990342,575.528136585552,85,85,1
sub117,learning,3,random,low,547.668375016656,554.34663333593,39,39,1
sub117,learning,3,regular,high,534.436024987372,556.893784071826,185,185,1
sub117,learning,4,random,high,527.83154998906,542.861156210161,101,101,1
sub117,learning,4,random,low,536.180349998176,532.185958893711,29,29,1
sub117,learning,4,regular,high,526.81875001872,535.593557870418,176,176,1
sub117,testing,T,random,high,363.14339999808,367.502879332176,109,109,1
sub117,testing,T,random,low,359.424800029956,365.785362776822,37,37,1
sub117,testing,T,regular,high,353.304150004988,362.787512900815,189,189,1
sub118,learning,1,random,high,515.121849995921,528.824697634658,92,92,1
sub118,learning,1,random,low,525.090474970057,543.583349086861,60,60,1
sub118,learning,1,regular,high,477.442624993273,483.658368416066,190,190,1
sub118,learning,2,random,high,472.628100018483,478.684574726548,87,87,1
sub118,learning,2,random,low,467.178099992452,483.074682703452,58,58,1
sub118,learning,2,regular,high,454.893700007233,455.340410622697,192,192,1
sub118,learning,3,random,high,489.225324970903,498.451216794059,86,86,1
sub118,learning,3,random,low,488.447599986102,483.78535745162,53,53,1
sub118,learning,3,regular,high,453.371725001489,457.88107946092,190,190,1
sub118,learning,4,random,high,463.242699988768,457.491035513783,97,97,1
sub118,learning,4,random,low,439.055800030474,448.733146036679,47,47,1
sub118,learning,4,regular,high,430.463500015321,439.330652515035,191,191,1
sub118,testing,T,random,high,367.237300029956,392.725051916706,85,85,1
sub118,testing,T,random,low,360.988649976207,366.632655409679,47,47,1
sub118,testing,T,regular,high,354.164049989777,373.1037114677,187,187,1
sub119,learning,1,random,high,442.170149995945,435.228352536003,77,77,1
sub119,learning,1,random,low,415.540850008256,424.315574602963,53,53,1
sub119,learning,1,regular,high,243.118374994083,256.461705484719,133,133,1
sub119,learning,2,random,high,417.487850005273,426.481560499168,83,83,1
sub119,learning,2,random,low,432.893999990483,435.893742009891,61,61,1
sub119,learning,2,regular,high,186.088174996257,224.582101851273,95,95,1
sub119,learning,3,random,high,422.529000003124,426.266619990657,80,80,1
sub119,learning,3,random,low,424.165875003382,429.740329656266,59,59,1
sub119,learning,3,regular,high,174.170200007211,218.36459967752,104,104,1
sub119,learning,4,random,high,397.689400007948,408.351230555739,68,68,1
sub119,learning,4,random,low,424.452450009994,424.114572149867,68,68,1
sub119,learning,4,regular,high,222.012374993938,231.95288266998,101,101,1
sub119,testing,T,random,high,369.569299997238,372.916944318268,79,79,1
sub119,testing,T,random,low,373.983650002629,368.37366130397,64,64,1
sub119,testing,T,regular,high,348.299500001303,349.181818929696,190,190,1
sub120,learning,1,random,high,543.133649989613,571.699517565665,78,78,1
sub120,learning,1,random,low,551.842999993824,558.053730289491,48,48,1
sub120,learning,1,regular,high,510.785424994538,522.562733833323,190,190,1
sub120,learning,2,random,high,555.724100006046,571.076927104387,84,84,1
sub120,learning,2,random,low,563.979225000367,594.197042572705,59,59,1
sub120,learning,2,regular,high,498.203724986524,509.957191509544,191,191,1
sub120,learning,3,random,high,514.874374988722,529.487705072016,74,74,1
sub120,learning,3,random,low,520.961400005035,533.640808152099,59,59,1
sub120,learning,3,regular,high,466.465750010684,476.264596240299,193,193,1
sub120,learning,4,random,high,528.376850008499,521.539786948092,88,88,1
sub120,learning,4,random,low,501.046899997164,533.248615224103,59,59,1
sub120,learning,4,regular,high,471.344649995444,475.484767877075,190,190,1
sub120,testing,T,random,high,412.94787498191,415.591818494864,84,84,1
sub120,testing,T,random,low,407.735400018282,410.397437544644,54,54,1
sub120,testing,T,regular,high,393.920699993032,397.243998553211,188,188,1
sub121,learning,1,random,high,534.042999999656,542.352091297518,93,93,1
sub121,learning,1,random,low,551.69617500178,559.577559723221,46,46,1
sub121,learning,1,regular,high,524.680400001671,544.775733792817,188,188,1
sub121,learning,2,random,high,515.368950000266,533.505434885103,96,96,1
sub121,learning,2,random,low,527.3096000019,546.247577254904,40,40,1
sub121,learning,2,regular,high,472.814699998708,479.763834144124,184,184,1
sub121,learning,3,random,high,556.641600000148,550.999329392116,95,95,1
sub121,learning,3,random,low,493.097999999009,559.431853334835,36,36,1
sub121,learning,3,regular,high,477.430999999342,496.531551311959,189,189,1
sub121,learning,4,random,high,495.648950001851,518.956767380948,109,109,1
sub121,learning,4,random,low,465.05315000104,488.624733444295,44,44,1
sub121,learning,4,regular,high,456.75570000094,456.445333496112,191,191,1
sub121,testing,T,random,high,353.040150001107,365.745677833232,108,108,1
sub121,testing,T,random,low,363.503649998165,368.56087529362,43,43,1
sub121,testing,T,regular,high,328.994550000061,340.214766130311,182,182,1
sub122,learning,1,random,high,522.31722498982,541.912278075585,85,85,1
sub122,learning,1,random,low,566.491999983555,588.323437724556,41,41,1
sub122,learning,1,regular,high,518.455900004483,527.750210967935,188,188,1
sub122,learning,2,random,high,544.043725007214,561.804226730582,86,86,1
sub122,learning,2,random,low,575.422850000905,606.777689683816,45,45,1
sub122,learning,2,regular,high,518.362025009992,541.477641837227,185,185,1
sub122,learning,3,random,high,544.282099988777,567.553090373381,84,84,1
sub122,learning,3,random,low,540.168450010242,565.683746289186,63,63,1
sub122,learning,3,regular,high,517.66042500094,539.339623931594,180,180,1
sub122,learning,4,random,high,509.687950005173,527.065835265239,85,85,1
sub122,learning,4,random,low,508.270399994217,537.350057618344,53,53,1
sub122,learning,4,regular,high,480.054550003843,498.206404361417,183,183,1
sub122,testing,T,random,high,391.327349992935,397.783974205142,78,78,1
sub122,testing,T,random,low,391.318800015142,405.507935396264,47,47,1
sub122,testing,T,regular,high,349.850150007114,355.434856594888,179,179,1
sub123,learning,1,random,high,571.731149997504,582.706803033977,85,85,1
sub123,learning,1,random,low,558.83837500005,607.646079630595,43,43,1
sub123,learning,1,regular,high,518.526449995989,526.500686541705,188,188,1
sub123,learning,2,random,high,546.130975002598,551.134746445936,97,97,1
sub123,learning,2,random,low,536.302149994299,543.741990237809,50,50,1
sub123,learning,2,regular,high,491.407500001515,500.873601142037,189,189,1
sub123,learning,3,random,high,537.03449999739,561.12949790972,100,100,1
sub123,learning,3,random,low,529.316774998733,561.43731302177,40,40,1
sub123,learning,3,regular,high,485.982199992577,506.044209160967,190,190,1
sub123,learning,4,random,high,556.360425001913,557.241382143288,95,95,1
sub123,learning,4,random,low,542.402899998706,558.280232843447,46,46,1
sub123,learning,4,regular,high,513.414000000921,537.981890669939,184,184,1
sub123,testing,T,random,high,420.926200000395,439.035091428213,89,89,1
sub123,testing,T,random,low,410.474700001942,438.930477315134,35,35,1
sub123,testing,T,regular,high,420.493625006202,424.981383706002,179,179,1
sub124,learning,1,random,high,577.772500000719,597.83228446153,94,94,1
sub124,learning,1,random,low,596.120700000029,589.941808021316,44,44,1
sub124,learning,1,regular,high,522.241300008318,547.631311957303,178,178,1
sub124,learning,2,random,high,534.246550007083,547.081993275503,99,99,1
sub124,learning,2,random,low,518.589799998154,527.949321110241,33,33,1
sub124,learning,2,regular,high,508.581174995925,510.920015586953,188,188,1
sub124,learning,3,random,high,529.384699999355,526.767061863626,106,106,1
sub124,learning,3,random,low,514.448850000917,518.58452202491,28,28,1
sub124,learning,3,regular,high,511.095649999334,519.607360891495,183,183,1
sub124,learning,4,random,high,559.940574999928,547.064122166218,112,112,1
sub124,learning,4,random,low,556.265425002493,567.92627656364,36,36,1
sub124,learning,4,regular,high,517.569100000401,522.033566860819,189,189,1
sub124,testing,T,random,high,377.619899998535,386.288220045662,105,105,1
sub124,testing,T,random,low,370.254124994972,385.599338019726,37,37,1
sub124,testing,T,regular,high,357.86509999889,368.363917085034,187,187,1
sub125,learning,1,random,high,579.520325009071,608.021643690509,86,86,1
sub125,learning,1,random,low,581.910799985053,604.447381051917,54,54,1
sub125,learning,1,regular,high,540.07570000249,559.695469975689,192,192,1
sub125,learning,2,random,high,559.384649990534,593.467457416902,96,96,1
sub125,learning,2,random,low,585.746274991834,606.10476342454,43,43,1
sub125,learning,2,regular,high,507.650550003746,527.303607971511,193,193,1
sub125,learning,3,random,high,561.453950009309,574.137150170136,90,90,1
sub125,learning,3,random,low,529.082950000884,547.290960250199,52,52,1
sub125,learning,3,regular,high,505.283500002406,511.9084144524,189,189,1
sub125,learning,4,random,high,548.412800009828,566.468951131728,95,95,1
sub125,learning,4,random,low,536.461549992964,556.350024536288,41,41,1
sub125,learning,4,regular,high,513.130500003172,524.7074192515,184,184,1
sub125,testing,T,random,high,381.451499997638,383.853657979624,104,104,1
sub125,testing,T,random,low,393.812225011061,392.01226791544,48,48,1
sub125,testing,T,regular,high,363.921974996629,370.411599870451,191,191,1
sub126,learning,1,random,high,462.443299984443,470.012824161838,93,93,1
sub126,learning,1,random,low,481.386200000998,476.209295531883,50,50,1
sub126,learning,1,regular,high,440.597150009125,455.387721926982,195,195,1
sub126,learning,2,random,high,451.946900007897,465.992354735713,93,93,1
sub126,learning,2,random,low,466.910449991701,473.170613081626,50,50,1
sub126,learning,2,regular,high,438.776549999602,447.586620970239,194,194,1
sub126,learning,3,random,high,464.583350010798,463.679549040432,106,106,1
sub126,learning,3,random,low,465.043000003789,461.029552860303,47,47,1
sub126,learning,3,regular,high,433.466375005082,436.128616086624,194,194,1
sub126,learning,4,random,high,447.427600010997,458.686959971344,94,94,1
sub126,learning,4,random,low,430.344674998196,436.056181250024,48,48,1
sub126,learning,4,regular,high,420.28697499336,430.932864758099,194,194,1
sub126,testing,T,random,high,372.799650009256,377.740428959263,93,93,1
sub126,testing,T,random,low,375.561099994229,383.934845078722,58,58,1
sub126,testing,T,regular,high,362.79425000248,373.14045028971,190,190,1
sub128,learning,1,random,high,589.37159999914,595.753989482508,84,84,1
sub128,learning,1,random,low,601.625675000832,606.689961979252,41,41,1
sub128,learning,1,regular,high,564.434150001034,576.957077133522,182,182,1
sub128,learning,2,random,high,619.492449994141,623.486767583155,107,107,1
sub128,learning,2,random,low,599.894250000943,622.60421382247,41,41,1
sub128,learning,2,regular,high,596.683100004157,590.689955093365,179,179,1
sub128,learning,3,random,high,629.136850002396,644.663518528497,108,108,1
sub128,learning,3,random,low,598.914124995645,624.804789284272,34,34,1
sub128,learning,3,regular,high,591.353724998044,606.661626908417,182,182,1
sub128,learning,4,random,high,653.397224996297,653.598264230848,93,93,1
sub128,learning,4,random,low,593.667599998298,626.869139215035,39,39,1
sub128,learning,4,regular,high,573.257350006315,601.487335219438,184,184,1
sub128,testing,T,random,high,406.619875000615,419.773425002079,20,20,1
sub128,testing,T,random,low,415.385499996773,439.708342859896,8,8,1
sub128,testing,T,regular,high,371.265799993125,399.95300577664,38,38,1
sub129,learning,1,random,high,559.842450005817,580.122641088663,99,99,1
sub129,learning,1,random,low,574.532900005579,607.297847698473,45,45,1
sub129,learning,1,regular,high,546.333449994563,564.381013217155,195,195,1
sub129,learning,2,random,high,545.395699999062,556.324116322878,105,105,1
sub129,learning,2,random,low,556.266075000167,568.511567708416,49,49,1
sub129,learning,2,regular,high,516.078799999377,530.376031866414,194,194,1
sub129,learning,3,random,high,550.448400012101,559.541189381662,87,87,1
sub129,learning,3,random,low,539.461899985327,565.590293968414,58,58,1
sub129,learning,3,regular,high,516.354050007067,531.61444959272,195,195,1
sub129,learning,4,random,high,481.90019998583,489.47392049302,91,91,1
sub129,learning,4,random,low,480.003874989052,481.071200414469,55,55,1
sub129,learning,4,regular,high,471.601600002032,475.286000181233,195,195,1
sub129,testing,T,random,high,334.36090000032,340.020346639251,107,107,1
sub129,testing,T,random,low,353.989600000205,358.1125841288,50,50,1
sub129,testing,T,regular,high,326.203149990761,330.967167227255,195,195,1
sub130,learning,1,random,high,483.149100007722,482.633211636715,94,94,1
sub130,learning,1,random,low,505.479999992531,504.571497368217,47,47,1
sub130,learning,1,regular,high,462.485750002088,463.630283453286,189,189,1
sub130,learning,2,random,high,488.529499998549,491.058716067197,87,87,1
sub130,learning,2,random,low,486.95819999557,485.507339914457,55,55,1
sub130,learning,2,regular,high,457.50672500435,459.22128207961,195,195,1
sub130,learning,3,random,high,473.94749999512,485.557792821382,97,97,1
sub130,learning,3,random,low,480.303899996216,488.654346054133,45,45,1
sub130,learning,3,regular,high,460.468150005909,461.990062579508,192,192,1
sub130,learning,4,random,high,469.555499992566,492.907890018674,97,97,1
sub130,learning,4,random,low,503.349874990818,499.595345332806,53,53,1
sub130,learning,4,regular,high,456.920999989961,460.713077786867,192,192,1
sub130,testing,T,random,high,402.368650000426,420.258059181907,108,108,1
sub130,testing,T,random,low,426.449899998261,434.698156664697,45,45,1
sub130,testing,T,regular,high,394.145650003338,414.254446866405,188,188,1
sub131,learning,1,random,high,562.928550003562,586.835938930977,82,82,1
sub131,learning,1,random,low,548.345050017815,571.508051677863,54,54,1
sub131,learning,1,regular,high,513.663449994056,534.386577545238,190,190,1
sub131,learning,2,random,high,503.128450000077,534.257254391951,104,104,1
sub131,learning,2,random,low,484.38239999814,512.243798509952,39,39,1
sub131,learning,2,regular,high,484.908575017471,504.789012271719,188,188,1
sub131,learning,3,random,high,506.958499987377,515.089078148936,97,97,1
sub131,learning,3,random,low,495.443675004935,513.098621250295,42,42,1
sub131,learning,3,regular,high,494.713499996578,501.24054740901,185,185,1
sub131,learning,4,random,high,486.855199997081,515.776712198121,86,86,1
sub131,learning,4,random,low,500.536499996088,509.061194918745,59,59,1
sub131,learning,4,regular,high,468.994300004852,480.356301097674,184,184,1
sub131,testing,T,random,high,387.863700001617,385.040077563948,90,90,1
sub131,testing,T,random,low,394.998449992272,409.486082082852,47,47,1
sub131,testing,T,regular,high,362.665949985967,368.049734562894,191,191,1
sub132,learning,1,random,high,512.68385000003,551.415130768687,91,91,1
sub132,learning,1,random,low,472.631799988449,535.598258941185,51,51,1
sub132,learning,1,regular,high,454.674699984025,480.090932059211,193,193,1
sub132,learning,2,random,high,466.899174993159,482.955674678128,102,102,1
sub132,learning,2,random,low,464.184349984862,488.22776898413,47,47,1
sub132,learning,2,regular,high,440.318175009452,452.73069455158,190,190,1
sub132,learning,3,random,high,447.376449999865,457.984045955733,96,96,1
sub132,learning,3,random,low,459.821099997498,491.297417283497,50,50,1
sub132,learning,3,regular,high,424.334475028445,433.177703198923,188,188,1
sub132,learning,4,random,high,457.332299964037,488.21729470391,100,100,1
sub132,learning,4,random,low,484.127850009827,485.425438427612,36,36,1
sub132,learning,4,regular,high,433.334574991022,460.12991824271,188,188,1
sub132,testing,T,random,high,337.151799991261,343.861354728179,91,91,1
sub132,testing,T,random,low,335.859424987575,341.95737963482,52,52,1
sub132,testing,T,regular,high,322.979724995093,333.886822932251,189,189,1
sub133,learning,1,random,high,532.69324998837,532.00901326634,78,78,1
sub133,learning,1,random,low,540.133600006811,552.746506004827,73,73,1
sub133,learning,1,regular,high,495.264224999119,510.188228997058,195,195,1
sub133,learning,2,random,high,499.470249982551,508.152836960709,83,83,1
sub133,learning,2,random,low,499.292649998097,516.205704999407,65,65,1
sub133,learning,2,regular,high,470.074599987129,477.337682374139,193,193,1
sub133,learning,3,random,high,494.722925010137,498.564829017083,71,71,1
sub133,learning,3,random,low,499.041850009235,519.611106092951,59,59,1
sub133,learning,3,regular,high,469.994249986485,472.813247648134,194,194,1
sub133,learning,4,random,high,481.834599981085,503.632814171824,88,88,1
sub133,learning,4,random,low,493.755649993545,492.268577778305,56,56,1
sub133,learning,4,regular,high,446.061400027247,461.366817139277,193,193,1
sub133,testing,T,random,high,404.661950014997,414.119169362842,81,81,1
sub133,testing,T,random,low,400.21415000956,409.177539002315,55,55,1
sub133,testing,T,regular,high,386.80005002243,392.845277741942,194,194,1
sub134,learning,1,random,high,350.264400001834,358.169178781315,89,89,1
sub134,learning,1,random,low,362.658649999503,366.291901250315,50,50,1
sub134,learning,1,regular,high,324.413599999389,333.830344227801,187,187,1
sub134,learning,2,random,high,360.633275000509,358.5299938276,95,95,1
sub134,learning,2,random,low,356.990525002402,358.459035984307,41,41,1
sub134,learning,2,regular,high,344.610649997776,350.935752971226,190,190,1
sub134,learning,3,random,high,391.438099999505,387.072292937813,85,85,1
sub134,learning,3,random,low,395.781074999832,408.731963083495,48,48,1
sub134,learning,3,regular,high,361.650349999763,368.893346938429,190,190,1
sub134,learning,4,random,high,379.455599999346,383.969495527823,88,88,1
sub134,learning,4,random,low,392.520875002447,395.30977072522,57,57,1
sub134,learning,4,regular,high,387.457550001272,387.685214311852,188,188,1
sub134,testing,T,random,high,374.637949997123,380.252723076443,82,82,1
sub134,testing,T,random,low,384.310299999925,399.955278257331,58,58,1
sub134,testing,T,regular,high,371.50287500117,375.673346342226,186,186,1
sub135,learning,1,random,high,434.218999987934,463.186711741364,109,109,1
sub135,learning,1,random,low,457.633024983807,449.610254676979,32,32,1
sub135,learning,1,regular,high,133.982774961623,199.855696142086,76,76,1
sub135,learning,2,random,high,433.230900001945,457.127406502518,98,98,1
sub135,learning,2,random,low,436.630924989004,446.046188744792,39,39,1
sub135,learning,2,regular,high,135.390324983746,189.444763745026,60,60,1
sub135,learning,3,random,high,427.389299991773,428.910345061983,98,98,1
sub135,learning,3,random,low,421.973749995232,435.771145626248,43,43,1
sub135,learning,3,regular,high,140.887599962298,183.499686937097,62,62,1
sub135,learning,4,random,high,439.168974975473,449.106287303795,101,101,1
sub135,learning,4,random,low,458.265100023709,443.781273043486,33,33,1
sub135,learning,4,regular,high,156.943550013239,209.691298541752,61,61,1
sub135,testing,T,random,high,327.90267499513,337.77738304471,105,105,1
sub135,testing,T,random,low,344.518400001107,369.321015621608,29,29,1
sub135,testing,T,regular,high,316.468724995502,330.60179420812,180,180,1
sub136,learning,1,random,high,563.436900032684,574.673661659943,106,106,1
sub136,learning,1,random,low,565.449300047476,579.229562727899,27,27,1
sub136,learning,1,regular,high,525.199299969245,531.175470798121,191,191,1
sub136,learning,2,random,high,495.529475010699,515.430613335662,104,104,1
sub136,learning,2,random,low,488.476324971998,500.249225934749,42,42,1
sub136,learning,2,regular,high,467.30859996751,476.804823637308,193,193,1
sub136,learning,3,random,high,501.979749999009,504.452186598548,114,114,1
sub136,learning,3,random,low,488.775650039315,491.815224990811,32,32,1
sub136,learning,3,regular,high,474.757874995703,481.635926636924,192,192,1
sub136,learning,4,random,high,503.866974962875,514.443652999536,97,97,1
sub136,learning,4,random,low,520.123724971199,519.905102783081,40,40,1
sub136,learning,4,regular,high,476.577875000658,481.058646584877,190,190,1
sub136,testing,T,random,high,388.317599892616,402.719378441602,90,90,1
sub136,testing,T,random,low,385.178450029343,389.179841287033,50,50,1
sub136,testing,T,regular,high,368.919150001602,376.880946415089,181,181,1
sub137,learning,1,random,high,544.344599999022,573.880959676093,98,98,1
sub137,learning,1,random,low,556.511500006309,575.320219693116,30,30,1
sub137,learning,1,regular,high,537.197850004304,562.420543594063,185,185,1
sub137,learning,2,random,high,551.430999985314,559.799046385967,126,126,1
sub137,learning,2,random,low,569.024299999001,571.782974357633,33,33,1
sub137,learning,2,regular,high,539.971650010557,549.647039034068,184,184,1
sub137,learning,3,random,high,583.729399979347,588.4538769115,113,113,1
sub137,learning,3,random,low,588.062800001353,605.751024239086,32,32,1
sub137,learning,3,regular,high,563.356374994328,575.086009019986,184,184,1
sub137,learning,4,random,high,548.660400003428,561.403163520869,108,108,1
sub137,learning,4,random,low,629.001749999588,620.204461902869,26,26,1
sub137,learning,4,regular,high,545.73825000989,559.394002000132,187,187,1
sub137,testing,T,random,high,471.608650004782,465.213542396183,106,106,1
sub137,testing,T,random,low,483.06520000915,507.885339546589,31,31,1
sub137,testing,T,regular,high,447.894175005786,460.556325971373,177,177,1
sub138,learning,1,random,high,566.314099996816,582.127321800006,83,83,1
sub138,learning,1,random,low,546.74530000193,574.716163833187,45,45,1
sub138,learning,1,regular,high,544.216474991117,548.465125024276,176,176,1
sub138,learning,2,random,high,556.32269999478,579.390678334283,79,79,1
sub138,learning,2,random,low,545.625799990376,553.227089918662,44,44,1
sub138,learning,2,regular,high,522.43872499821,549.537787551017,170,170,1
sub138,learning,3,random,high,551.992100008647,579.716484550702,84,84,1
sub138,learning,3,random,low,547.986500008847,562.131838094779,56,56,1
sub138,learning,3,regular,high,532.74655000132,550.934260279036,163,163,1
sub138,learning,4,random,high,570.088799999212,590.288015116432,87,87,1
sub138,learning,4,random,low,558.822999999393,567.108707917578,45,45,1
sub138,learning,4,regular,high,524.752299992542,539.84640377337,168,168,1
sub138,testing,T,random,high,372.147349989973,381.052067373355,87,87,1
sub138,testing,T,random,low,360.337250007433,363.907029031237,38,38,1
sub138,testing,T,regular,high,356.867499991495,362.003201217969,171,171,1
sub139,learning,1,random,high,404.021700029261,420.786305828444,109,109,1
sub139,learning,1,random,low,409.696800052188,434.978217150738,41,41,1
sub139,learning,1,regular,high,409.565274952911,409.503447880982,189,189,1
sub139,learning,2,random,high,407.82785002375,412.258547339079,97,97,1
sub139,learning,2,random,low,402.771399938501,394.000678177043,51,51,1
sub139,learning,2,regular,high,398.717525007669,387.039400203481,193,193,1
sub139,learning,3,random,high,401.973350031767,397.414962158547,85,85,1
sub139,learning,3,random,low,390.18930005841,385.956190624417,53,53,1
sub139,learning,3,regular,high,381.557075015735,366.636152239481,186,186,1
sub139,learning,4,random,high,399.354499997571,396.652371085928,97,97,1
sub139,learning,4,random,low,398.930775030749,376.202112961673,42,42,1
sub139,learning,4,regular,high,374.609174963553,359.467234783164,182,182,1
sub139,testing,T,random,high,342.444299953058,352.937611352213,89,89,1
sub139,testing,T,random,low,359.571999986656,361.202418253044,51,51,1
sub139,testing,T,regular,high,344.015175040113,345.388525366258,188,188,1
