initial_random_seq_files,orientation_index,orientation_degrees,correct_answer_index,correct_answer_direction,arrow_color,practice_seq_files,learning_seq_files,motor_testing_seq_files,init_random_block.thisRepN,init_random_block.thisTrialN,init_random_block.thisN,init_random_block.thisIndex,init_random_trials.thisRepN,init_random_trials.thisTrialN,init_random_trials.thisN,init_random_trials.thisIndex,practice_blocks.thisRepN,practice_blocks.thisTrialN,practice_blocks.thisN,practice_blocks.thisIndex,practice_trials.thisRepN,practice_trials.thisTrialN,practice_trials.thisN,practice_trials.thisIndex,learning_trials.thisRepN,learning_trials.thisTrialN,learning_trials.thisN,learning_trials.thisIndex,learning_loop.thisRepN,learning_loop.thisTrialN,learning_loop.thisN,learning_loop.thisIndex,trials.thisRepN,trials.thisTrialN,trials.thisN,trials.thisIndex,motor_testing_trials.thisRepN,motor_testing_trials.thisTrialN,motor_testing_trials.thisN,motor_testing_trials.thisIndex,motor_testing_loop.thisRepN,motor_testing_loop.thisTrialN,motor_testing_loop.thisN,motor_testing_loop.thisIndex,thisRow.t,notes,welcomescreen.started,spaceship.started,welcometext.started,welcome_end.started,welcomescreen.stopped,welcome_end.keys,welcome_end.rt,welcome_end.duration,pre_section.started,fixation_init.started,pre_section.stopped,trial.started,arrowhead.started,key_resp.started,arrowhead.stopped,trial.stopped,key_resp.keys,key_resp.corr,key_resp.rt,key_resp.duration,fixation_feedback.started,cross.started,feedback_text.started,cross.stopped,feedback_text.stopped,fixation_feedback.stopped,RSI.started,text_2.started,RSI.stopped,text_2.stopped,post_section.started,feedback_post_section.started,key_resp_4.started,post_section.stopped,key_resp_4.keys,key_resp_4.rt,key_resp_4.duration,pratice_instruction.started,spaceship_rotated.started,rotation_instruction.started,key_resp_2.started,pratice_instruction.stopped,key_resp_2.keys,key_resp_2.rt,key_resp_2.duration,fixation_init.stopped,learning_instruction.started,spaceship_rotated01.started,rotation_instruction01.started,key_resp_02.started,learning_instruction.stopped,key_resp_02.keys,key_resp_02.rt,key_resp_02.duration,seqreport_instruction.started,seqreport_instruction_text.started,seqreport_instruction_key.started,seqreport_instruction.stopped,seqreport_instruction_key.keys,seqreport_instruction_key.rt,seqreport_instruction_key.duration,seqreport.started,seq_report_key.started,seqreport.stopped,seq_report_key.keys,seq_report_key.rt,seq_report_key.duration,seqarrow.started,arrow_report.started,arrow_report.stopped,seqarrow.stopped,key_resp.stopped,motor_testing_instruction.started,spaceship3.started,motor_testing_instruction_text.started,key_resp_3.started,motor_testing_instruction.stopped,key_resp_3.keys,key_resp_3.rt,key_resp_3.duration,fixation.started,cross_2.started,cross_2.stopped,fixation.stopped,thankyouscreen.started,text.started,key_resp_6.started,thankyouscreen.stopped,key_resp_6.keys,key_resp_6.rt,key_resp_6.duration,participant,learning_type,seqID,debug,date,expName,psychopyVersion,frameRate,expStart,
,,,,,,,,,,,,,,,,,,,,,,,,,,,,,,,,,,,,,,,,,,,,,,,0.010905100003583357,0.021044100023573264,0.021044100023573264,0.021044100023573264,19.60765730001731,2,19.58333510000375,None,,,,,,,,,,,,,,,,,,,,,,,,,,,,,,,,,,,,,,,,,,,,,,,,,,,,,,,,,,,,,,,,,,,,,,,,,,,,,,,,,,,,sub137,motor,4,0,2024-12-13_09h15.15.184,ASRT_motor,2023.2.3,143.56285683068376,2024-12-13 09h15.37.925177 +0800,
sequences/sub137_initial_random.csv,2,180,2,2,red,,,,0,0,0,0,0,0,0,0,,,,,,,,,,,,,,,,,,,,,,,,,,,,,20.665180400013924,,,,,,,,,,19.628311800013762,19.631898200022988,20.613911499996902,20.659771100006765,20.665180400013924,20.665180400013924,20.870483800012153,21.047048000007635,4,0,0.3795673999993596,None,21.0479156000074,21.064331800007494,21.064331800007494,21.25962620001519,21.46761150000384,21.461923499999102,21.461957400024403,21.46761150000384,22.162850200023968,,,,,,,,,,,,,,,,,,,,,,,,,,,,,,,,,,,,,,,,,,,,,,,,,,,,,,,,,,,,,,,sub137,motor,4,0,2024-12-13_09h15.15.184,ASRT_motor,2023.2.3,143.56285683068376,2024-12-13 09h15.37.925177 +0800,
sequences/sub137_initial_random.csv,0,0,0,4,red,,,,0,0,0,0,0,1,1,1,,,,,,,,,,,,,,,,,,,,,,,,,,,,,22.169242400006624,,,,,,,,,,,,,22.163591100019403,22.169242400006624,22.169242400006624,22.37076980000711,22.574489799997536,4,1,0.3990685000026133,None,22.575137400010135,22.58218530000886,22.58218530000886,22.78733839999768,22.99559540001792,22.989887100004125,22.989920100022573,22.99559540001792,23.690372500015656,,,,,,,,,,,,,,,,,,,,,,,,,,,,,,,,,,,,,,,,,,,,,,,,,,,,,,,,,,,,,,,sub137,motor,4,0,2024-12-13_09h15.15.184,ASRT_motor,2023.2.3,143.56285683068376,2024-12-13 09h15.37.925177 +0800,
sequences/sub137_initial_random.csv,2,180,2,2,red,,,,0,0,0,0,0,2,2,2,,,,,,,,,,,,,,,,,,,,,,,,,,,,,23.696888100006618,,,,,,,,,,,,,23.690930100012338,23.696888100006618,23.696888100006618,23.89861600002041,24.290019000007305,2,1,0.5902729000081308,None,24.290559400018537,24.297488200012594,24.297488200012594,24.50264740001876,24.71157110002241,24.70564710002509,24.705694400006905,24.71157110002241,25.406723799998872,25.412536500021815,,,,,,,,,,,,,,,,,,,,,,,,,,,,,,,,,,,,,,,,,,,,,,,,,,,,,,,,,,,,,,sub137,motor,4,0,2024-12-13_09h15.15.184,ASRT_motor,2023.2.3,143.56285683068376,2024-12-13 09h15.37.925177 +0800,
sequences/sub137_initial_random.csv,2,180,2,2,red,,,,0,0,0,0,0,3,3,3,,,,,,,,,,,,,,,,,,,,,,,,,,,,,25.412536500021815,,,,,,,,,,,,,25.40726840001298,25.412536500021815,25.412536500021815,25.613657300011255,25.768928300007246,2,1,0.352378299983684,None,25.76944010000443,25.77420610000263,25.77420610000263,25.981628400011687,26.18993020002381,26.18490490000113,26.184945300017716,26.18993020002381,26.885434700001497,26.890956600022037,,,,,,,,,,,,,,,,,,,,,,,,,,,,,,,,,,,,,,,,,,,,,,,,,,,,,,,,,,,,,,sub137,motor,4,0,2024-12-13_09h15.15.184,ASRT_motor,2023.2.3,143.56285683068376,2024-12-13 09h15.37.925177 +0800,
sequences/sub137_initial_random.csv,1,90,1,3,red,,,,0,0,0,0,0,4,4,4,,,,,,,,,,,,,,,,,,,,,,,,,,,,,26.890956600022037,,,,,,,,,,,,,26.886033400020096,26.890956600022037,26.890956600022037,27.092562200006796,27.164225000014994,2,0,0.26565869999467395,None,27.164615100016817,27.17357140002423,27.17357140002423,27.377507099998184,27.58575140000903,27.580078300001333,27.58011580002494,27.58575140000903,28.280435799999395,,,,,,,,,,,,,,,,,,,,,,,,,,,,,,,,,,,,,,,,,,,,,,,,,,,,,,,,,,,,,,,sub137,motor,4,0,2024-12-13_09h15.15.184,ASRT_motor,2023.2.3,143.56285683068376,2024-12-13 09h15.37.925177 +0800,
sequences/sub137_initial_random.csv,2,180,2,2,red,,,,0,0,0,0,0,5,5,5,,,,,,,,,,,,,,,,,,,,,,,,,,,,,28.287042700016173,,,,,,,,,,,,,28.281101900007343,28.287042700016173,28.287042700016173,28.488727000018116,28.824108100001467,2,1,0.5302265000063926,None,28.82455089999712,28.8303441000171,28.8303441000171,29.03700170002412,29.24579790001735,29.239857400010806,29.23989990001428,29.24579790001735,29.940999500016915,,,,,,,,,,,,,,,,,,,,,,,,,,,,,,,,,,,,,,,,,,,,,,,,,,,,,,,,,,,,,,,sub137,motor,4,0,2024-12-13_09h15.15.184,ASRT_motor,2023.2.3,143.56285683068376,2024-12-13 09h15.37.925177 +0800,
sequences/sub137_initial_random.csv,3,270,3,1,red,,,,0,0,0,0,0,6,6,6,,,,,,,,,,,,,,,,,,,,,,,,,,,,,29.94799410001724,,,,,,,,,,,,,29.942219700023998,29.94799410001724,29.94799410001724,30.148368000023765,30.316774200007785,2,0,0.36413050000555813,None,30.317356800020207,30.32715029999963,30.32715029999963,30.530105200014077,30.738566900021397,30.73249530000612,30.732521500001894,30.738566900021397,31.43315870000515,,,,,,,,,,,,,,,,,,,,,,,,,,,,,,,,,,,,,,,,,,,,,,,,,,,,,,,,,,,,,,,sub137,motor,4,0,2024-12-13_09h15.15.184,ASRT_motor,2023.2.3,143.56285683068376,2024-12-13 09h15.37.925177 +0800,
sequences/sub137_initial_random.csv,2,180,2,2,red,,,,0,0,0,0,0,7,7,7,,,,,,,,,,,,,,,,,,,,,,,,,,,,,31.43966500001261,,,,,,,,,,,,,31.433864899998298,31.43966500001261,31.43966500001261,31.641187800007174,31.788939999998547,4,0,0.34221609999076463,None,31.78949170000851,31.795129800011637,31.795129800011637,32.002542700007325,32.21085520001361,32.20428920001723,32.20431620001909,32.21085520001361,32.90555290001794,,,,,,,,,,,,,,,,,,,,,,,,,,,,,,,,,,,,,,,,,,,,,,,,,,,,,,,,,,,,,,,sub137,motor,4,0,2024-12-13_09h15.15.184,ASRT_motor,2023.2.3,143.56285683068376,2024-12-13 09h15.37.925177 +0800,
sequences/sub137_initial_random.csv,2,180,2,2,red,,,,0,0,0,0,0,8,8,8,,,,,,,,,,,,,,,,,,,,,,,,,,,,,32.911919800011674,,,,,,,,,,,,,32.9061509000021,32.911919800011674,32.911919800011674,,32.94870500001707,2,1,0.030535199999576434,None,32.949485999997705,32.96038470001076,32.96038470001076,33.16264640001464,33.370265400008066,33.365152400016086,33.36519860001863,33.370265400008066,34.065403500018874,34.07155459999922,,,,,,,,,,,,,,,,,,,,,,,,,,,,,,,,,,,,,,,,,,,,,,,,,,,,,,,,,,,,,,sub137,motor,4,0,2024-12-13_09h15.15.184,ASRT_motor,2023.2.3,143.56285683068376,2024-12-13 09h15.37.925177 +0800,
sequences/sub137_initial_random.csv,2,180,2,2,red,,,,0,0,0,0,0,9,9,9,,,,,,,,,,,,,,,,,,,,,,,,,,,,,34.07155459999922,,,,,,,,,,,,,34.0658800000092,34.07155459999922,34.07155459999922,34.273053100012476,35.06543590000365,None,0,,,35.06588920002105,35.07981720002135,35.07981720002135,35.280320600024424,35.488529299997026,35.48398730001645,35.4840308999992,35.488529299997026,36.18570699999691,36.19214450000436,,,,,,,,,,,,,,,,,,,,,,,,,,,,,,,,,,,,,,,,,,,,,,,,,,,,,,,,,,,,,,sub137,motor,4,0,2024-12-13_09h15.15.184,ASRT_motor,2023.2.3,143.56285683068376,2024-12-13 09h15.37.925177 +0800,
sequences/sub137_initial_random.csv,2,180,2,2,red,,,,0,0,0,0,0,10,10,10,,,,,,,,,,,,,,,,,,,,,,,,,,,,,36.19214450000436,,,,,,,,,,,,,36.186429100023815,36.19214450000436,36.19214450000436,36.391689700016286,37.19036639999831,None,0,,,37.19106070001726,37.19730240001809,37.19730240001809,37.405140500020934,37.61439220001921,37.60753600002499,37.60757439999725,37.61439220001921,38.30875300001935,,,,,,,,,,,,,,,,,,,,,,,,,,,,,,,,,,,,,,,,,,,,,,,,,,,,,,,,,,,,,,,sub137,motor,4,0,2024-12-13_09h15.15.184,ASRT_motor,2023.2.3,143.56285683068376,2024-12-13 09h15.37.925177 +0800,
sequences/sub137_initial_random.csv,1,90,1,3,red,,,,0,0,0,0,0,11,11,11,,,,,,,,,,,,,,,,,,,,,,,,,,,,,38.316013700008625,,,,,,,,,,,,,38.30937400000403,38.316013700008625,38.316013700008625,38.51702260001912,38.88149150001118,3,1,0.5616416999837384,None,38.88215390002006,38.891811300010886,38.891811300010886,39.09291289999965,39.3012687000155,39.29581040001358,39.29586300000665,39.3012687000155,39.9972694000171,40.00403010001173,,,,,,,,,,,,,,,,,,,,,,,,,,,,,,,,,,,,,,,,,,,,,,,,,,,,,,,,,,,,,,sub137,motor,4,0,2024-12-13_09h15.15.184,ASRT_motor,2023.2.3,143.56285683068376,2024-12-13 09h15.37.925177 +0800,
sequences/sub137_initial_random.csv,2,180,2,2,red,,,,0,0,0,0,0,12,12,12,,,,,,,,,,,,,,,,,,,,,,,,,,,,,40.00403010001173,,,,,,,,,,,,,39.99802220001584,40.00403010001173,40.00403010001173,40.20366900000954,40.55446870002197,2,1,0.5462537000130396,None,40.555635800003074,40.5664285000239,40.5664285000239,40.76622750001843,40.974758800002746,40.96870300002047,40.96874260000186,40.974758800002746,41.66945030001807,,,,,,,,,,,,,,,,,,,,,,,,,,,,,,,,,,,,,,,,,,,,,,,,,,,,,,,,,,,,,,,sub137,motor,4,0,2024-12-13_09h15.15.184,ASRT_motor,2023.2.3,143.56285683068376,2024-12-13 09h15.37.925177 +0800,
sequences/sub137_initial_random.csv,3,270,3,1,red,,,,0,0,0,0,0,13,13,13,,,,,,,,,,,,,,,,,,,,,,,,,,,,,41.67663060000632,,,,,,,,,,,,,41.67012059999979,41.67663060000632,41.67663060000632,41.87689430001774,42.096419500012416,1,1,0.41693010000744835,None,42.09717210000963,42.10372690000804,42.10372690000804,42.30793999999878,42.51625130002503,42.510217300005024,42.510252200008836,42.51625130002503,43.210595300013665,,,,,,,,,,,,,,,,,,,,,,,,,,,,,,,,,,,,,,,,,,,,,,,,,,,,,,,,,,,,,,,sub137,motor,4,0,2024-12-13_09h15.15.184,ASRT_motor,2023.2.3,143.56285683068376,2024-12-13 09h15.37.925177 +0800,
sequences/sub137_initial_random.csv,1,90,1,3,red,,,,0,0,0,0,0,14,14,14,,,,,,,,,,,,,,,,,,,,,,,,,,,,,43.2173088999989,,,,,,,,,,,,,43.21145970001817,43.2173088999989,43.2173088999989,43.41879070000141,43.499005400022725,4,0,0.27830330000142567,None,43.49976210002205,43.50728489999892,43.50728489999892,43.71059060000698,43.92102259999956,43.91472890001023,43.914769100025296,43.92102259999956,44.614847500022734,44.620734700001776,,,,,,,,,,,,,,,,,,,,,,,,,,,,,,,,,,,,,,,,,,,,,,,,,,,,,,,,,,,,,,sub137,motor,4,0,2024-12-13_09h15.15.184,ASRT_motor,2023.2.3,143.56285683068376,2024-12-13 09h15.37.925177 +0800,
sequences/sub137_initial_random.csv,0,0,0,4,red,,,,0,0,0,0,0,15,15,15,,,,,,,,,,,,,,,,,,,,,,,,,,,,,44.620734700001776,,,,,,,,,,,,,44.61549890000606,44.620734700001776,44.620734700001776,44.82182700000703,45.11259340000106,4,1,0.4869328999775462,None,45.11362650000956,45.12140669999644,45.12140669999644,45.32194670001627,45.5303261000081,45.52432550000958,45.524365600023884,45.5303261000081,46.22631640001782,,,,,,,,,,,,,,,,,,,,,,,,,,,,,,,,,,,,,,,,,,,,,,,,,,,,,,,,,,,,,,,sub137,motor,4,0,2024-12-13_09h15.15.184,ASRT_motor,2023.2.3,143.56285683068376,2024-12-13 09h15.37.925177 +0800,
sequences/sub137_initial_random.csv,0,0,0,4,red,,,,0,0,0,0,0,16,16,16,,,,,,,,,,,,,,,,,,,,,,,,,,,,,46.23657800001092,,,,,,,,,,,,,46.227332900016336,46.23657800001092,46.23657800001092,46.439684600016335,46.73494640001445,4,1,0.49534620001213625,None,46.73556310002459,46.74268190001021,46.74268190001021,46.94635770001332,47.15537660001428,47.149566000007326,47.149612500012154,47.15537660001428,47.852762800001074,,,,,,,,,,,,,,,,,,,,,,,,,,,,,,,,,,,,,,,,,,,,,,,,,,,,,,,,,,,,,,,sub137,motor,4,0,2024-12-13_09h15.15.184,ASRT_motor,2023.2.3,143.56285683068376,2024-12-13 09h15.37.925177 +0800,
sequences/sub137_initial_random.csv,1,90,1,3,red,,,,0,0,0,0,0,17,17,17,,,,,,,,,,,,,,,,,,,,,,,,,,,,,47.86010800002259,,,,,,,,,,,,,47.85354560002452,47.86010800002259,47.86010800002259,48.064615100011,48.32396140001947,3,1,0.45981110000866465,None,48.32452610001201,48.329257100005634,48.329257100005634,48.536998600000516,48.74733969999943,48.74138600000879,48.741444300016155,48.74733969999943,49.44152130000293,49.44712220001384,,,,,,,,,,,,,,,,,,,,,,,,,,,,,,,,,,,,,,,,,,,,,,,,,,,,,,,,,,,,,,sub137,motor,4,0,2024-12-13_09h15.15.184,ASRT_motor,2023.2.3,143.56285683068376,2024-12-13 09h15.37.925177 +0800,
sequences/sub137_initial_random.csv,2,180,2,2,red,,,,0,0,0,0,0,18,18,18,,,,,,,,,,,,,,,,,,,,,,,,,,,,,49.44712220001384,,,,,,,,,,,,,49.44200740000815,49.44712220001384,49.44712220001384,49.64770319999661,49.802601900009904,3,0,0.3480823000136297,None,49.8031147000147,49.81052110000746,49.81052110000746,50.0158188000205,50.22449439999764,50.218898400024045,50.21893280002405,50.22449439999764,50.919616200000746,50.925275100016734,,,,,,,,,,,,,,,,,,,,,,,,,,,,,,,,,,,,,,,,,,,,,,,,,,,,,,,,,,,,,,sub137,motor,4,0,2024-12-13_09h15.15.184,ASRT_motor,2023.2.3,143.56285683068376,2024-12-13 09h15.37.925177 +0800,
sequences/sub137_initial_random.csv,3,270,3,1,red,,,,0,0,0,0,0,19,19,19,,,,,,,,,,,,,,,,,,,,,,,,,,,,,50.925275100016734,,,,,,,,,,,,,50.9200471000222,50.925275100016734,50.925275100016734,51.126760000013746,51.40885780000826,2,0,0.4800653999845963,None,51.40960410001571,51.41903900000034,51.41903900000034,51.61990869999863,51.8285118000058,51.82304430002114,51.823076900007436,51.8285118000058,52.52352139999857,,,,,,,,,,,,,,,,,,,,,,,,,,,,,,,,,,,,,,,,,,,,,,,,,,,,,,,,,,,,,,,sub137,motor,4,0,2024-12-13_09h15.15.184,ASRT_motor,2023.2.3,143.56285683068376,2024-12-13 09h15.37.925177 +0800,
sequences/sub137_initial_random.csv,1,90,1,3,red,,,,0,0,0,0,0,20,20,20,,,,,,,,,,,,,,,,,,,,,,,,,,,,,52.53137510002125,,,,,,,,,,,,,52.524102800001856,52.53137510002125,52.53137510002125,52.731119900010526,52.900060200016014,3,1,0.36482539999997243,None,52.90078680001898,52.90908780001337,52.90908780001337,53.113309700012906,53.32150060002459,53.3158223000064,53.31586740000057,53.32150060002459,54.0167171000212,,,,,,,,,,,,,,,,,,,,,,,,,,,,,,,,,,,,,,,,,,,,,,,,,,,,,,,,,,,,,,,sub137,motor,4,0,2024-12-13_09h15.15.184,ASRT_motor,2023.2.3,143.56285683068376,2024-12-13 09h15.37.925177 +0800,
sequences/sub137_initial_random.csv,0,0,0,4,red,,,,0,0,0,0,0,21,21,21,,,,,,,,,,,,,,,,,,,,,,,,,,,,,54.02262050000718,,,,,,,,,,,,,54.017413299996406,54.02262050000718,54.02262050000718,54.224363500019535,54.40856110001914,1,0,0.38077360001625493,None,54.40922750000027,54.418591800000286,54.418591800000286,54.6197119000135,54.82867250000709,54.82343879999826,54.823483700020006,54.82867250000709,55.52453670001705,55.53332670000964,,,,,,,,,,,,,,,,,,,,,,,,,,,,,,,,,,,,,,,,,,,,,,,,,,,,,,,,,,,,,,sub137,motor,4,0,2024-12-13_09h15.15.184,ASRT_motor,2023.2.3,143.56285683068376,2024-12-13 09h15.37.925177 +0800,
sequences/sub137_initial_random.csv,2,180,2,2,red,,,,0,0,0,0,0,22,22,22,,,,,,,,,,,,,,,,,,,,,,,,,,,,,55.53332670000964,,,,,,,,,,,,,55.52524050002103,55.53332670000964,55.53332670000964,55.73857159999898,55.81034720002208,2,1,0.2696869000210427,None,55.811191900022095,55.81895149999764,55.81895149999764,56.02263059999677,56.230916600005,56.225617500022054,56.22565619999659,56.230916600005,56.92595679999795,,,,,,,,,,,,,,,,,,,,,,,,,,,,,,,,,,,,,,,,,,,,,,,,,,,,,,,,,,,,,,,sub137,motor,4,0,2024-12-13_09h15.15.184,ASRT_motor,2023.2.3,143.56285683068376,2024-12-13 09h15.37.925177 +0800,
sequences/sub137_initial_random.csv,1,90,1,3,red,,,,0,0,0,0,0,23,23,23,,,,,,,,,,,,,,,,,,,,,,,,,,,,,56.93231260002358,,,,,,,,,,,,,56.92656620001071,56.93231260002358,56.93231260002358,57.13505520002218,57.398904100002255,3,1,0.4624050999991596,None,57.3995050000085,57.40479180001421,57.40479180001421,57.61276080002426,57.821565300022485,57.815344400005415,57.81538250000449,57.821565300022485,58.516041199996835,,,,,,,,,,,,,,,,,,,,,,,,,,,,,,,,,,,,,,,,,,,,,,,,,,,,,,,,,,,,,,,sub137,motor,4,0,2024-12-13_09h15.15.184,ASRT_motor,2023.2.3,143.56285683068376,2024-12-13 09h15.37.925177 +0800,
sequences/sub137_initial_random.csv,2,180,2,2,red,,,,0,0,0,0,0,24,24,24,,,,,,,,,,,,,,,,,,,,,,,,,,,,,58.522543200000655,,,,,,,,,,,,,58.5164462000248,58.522543200000655,58.522543200000655,58.72493620001478,58.956742400012445,2,1,0.4315178999968339,None,58.957491000008304,58.96405680000316,58.96405680000316,59.16850400000112,59.37834890000522,59.37191970000276,59.371977600007085,59.37834890000522,60.072249400021974,60.07876990002114,,,,,,,,,,,,,,,,,,,,,,,,,,,,,,,,,,,,,,,,,,,,,,,,,,,,,,,,,,,,,,sub137,motor,4,0,2024-12-13_09h15.15.184,ASRT_motor,2023.2.3,143.56285683068376,2024-12-13 09h15.37.925177 +0800,
sequences/sub137_initial_random.csv,0,0,0,4,red,,,,0,0,0,0,0,25,25,25,,,,,,,,,,,,,,,,,,,,,,,,,,,,,60.07876990002114,,,,,,,,,,,,,60.07292470001266,60.07876990002114,60.07876990002114,60.27997260002303,60.44173800002318,4,1,0.3593735000176821,None,60.442531700013205,60.45138880002196,60.45138880002196,60.65414920001058,60.86290890001692,60.857768300018506,60.8578035000246,60.86290890001692,61.55831360002048,,,,,,,,,,,,,,,,,,,,,,,,,,,,,,,,,,,,,,,,,,,,,,,,,,,,,,,,,,,,,,,sub137,motor,4,0,2024-12-13_09h15.15.184,ASRT_motor,2023.2.3,143.56285683068376,2024-12-13 09h15.37.925177 +0800,
sequences/sub137_initial_random.csv,1,90,1,3,red,,,,0,0,0,0,0,26,26,26,,,,,,,,,,,,,,,,,,,,,,,,,,,,,61.564712000021245,,,,,,,,,,,,,61.55917110000155,61.564712000021245,61.564712000021245,61.765542200009804,61.851225400023395,3,1,0.27900550002232194,None,61.85208140002214,61.8609002000012,61.8609002000012,62.06463900001836,62.27259700000286,62.26780000000144,62.26786849999917,62.27259700000286,62.96713050000835,62.974225700017996,,,,,,,,,,,,,,,,,,,,,,,,,,,,,,,,,,,,,,,,,,,,,,,,,,,,,,,,,,,,,,sub137,motor,4,0,2024-12-13_09h15.15.184,ASRT_motor,2023.2.3,143.56285683068376,2024-12-13 09h15.37.925177 +0800,
sequences/sub137_initial_random.csv,2,180,2,2,red,,,,0,0,0,0,0,27,27,27,,,,,,,,,,,,,,,,,,,,,,,,,,,,,62.974225700017996,,,,,,,,,,,,,62.96850690001156,62.974225700017996,62.974225700017996,63.1759207000141,63.35163530000136,2,1,0.37314869998954237,None,63.35227750000195,63.36007850000169,63.36007850000169,63.56431000001612,63.77232129999902,63.7665911000222,63.7666154000035,63.77232129999902,64.46687740000198,64.47405040002195,,,,,,,,,,,,,,,,,,,,,,,,,,,,,,,,,,,,,,,,,,,,,,,,,,,,,,,,,,,,,,sub137,motor,4,0,2024-12-13_09h15.15.184,ASRT_motor,2023.2.3,143.56285683068376,2024-12-13 09h15.37.925177 +0800,
sequences/sub137_initial_random.csv,3,270,3,1,red,,,,0,0,0,0,0,28,28,28,,,,,,,,,,,,,,,,,,,,,,,,,,,,,64.47405040002195,,,,,,,,,,,,,64.46729860000778,64.47405040002195,64.47405040002195,64.67546920001041,64.8736153000209,1,1,0.3932476000045426,None,64.87468810001155,64.87864360000822,64.87864360000822,65.0848995000124,65.29416260001017,65.28986280001118,65.28991099999985,65.29416260001017,65.98914950000471,65.99460420000833,,,,,,,,,,,,,,,,,,,,,,,,,,,,,,,,,,,,,,,,,,,,,,,,,,,,,,,,,,,,,,sub137,motor,4,0,2024-12-13_09h15.15.184,ASRT_motor,2023.2.3,143.56285683068376,2024-12-13 09h15.37.925177 +0800,
sequences/sub137_initial_random.csv,3,270,3,1,red,,,,0,0,0,0,0,29,29,29,,,,,,,,,,,,,,,,,,,,,,,,,,,,,65.99460420000833,,,,,,,,,,,,,65.98978970001917,65.99460420000833,65.99460420000833,66.19650479999837,66.39359730001888,2,0,0.3902061999833677,None,66.39426370000001,66.40405900002224,66.40405900002224,66.6058835000149,66.8140283000248,66.80885310002486,66.80889919999754,66.8140283000248,67.50912360000075,,,,,,,,,,,,,,,,,,,,,,,,,,,,,,,,,,,,,,,,,,,,,,,,,,,,,,,,,,,,,,,sub137,motor,4,0,2024-12-13_09h15.15.184,ASRT_motor,2023.2.3,143.56285683068376,2024-12-13 09h15.37.925177 +0800,
sequences/sub137_initial_random.csv,2,180,2,2,red,,,,0,0,0,0,0,30,30,30,,,,,,,,,,,,,,,,,,,,,,,,,,,,,67.51583020001999,,,,,,,,,,,,,67.50990040000761,67.51583020001999,67.51583020001999,67.71712740001385,68.02525679999962,1,0,0.5037855000118725,None,68.02589610000723,68.03287200001068,68.03287200001068,68.23802780002006,68.4459257000126,68.44066350001958,68.44070930001908,68.4459257000126,69.1411924000131,,,,,,,,,,,,,,,,,,,,,,,,,,,,,,,,,,,,,,,,,,,,,,,,,,,,,,,,,,,,,,,sub137,motor,4,0,2024-12-13_09h15.15.184,ASRT_motor,2023.2.3,143.56285683068376,2024-12-13 09h15.37.925177 +0800,
sequences/sub137_initial_random.csv,2,180,2,2,red,,,,0,0,0,0,0,31,31,31,,,,,,,,,,,,,,,,,,,,,,,,,,,,,69.14801430000807,,,,,,,,,,,,,69.14185919999727,69.14801430000807,69.14801430000807,69.34882860002108,69.62191330001224,2,1,0.4664037000038661,None,69.62262410001131,69.63094840000849,69.63094840000849,69.83545270000468,70.04331710000406,70.03769170001033,70.03773720000754,70.04331710000406,70.73794950000593,,,,,,,,,,,,,,,,,,,,,,,,,,,,,,,,,,,,,,,,,,,,,,,,,,,,,,,,,,,,,,,sub137,motor,4,0,2024-12-13_09h15.15.184,ASRT_motor,2023.2.3,143.56285683068376,2024-12-13 09h15.37.925177 +0800,
sequences/sub137_initial_random.csv,3,270,3,1,red,,,,0,0,0,0,0,32,32,32,,,,,,,,,,,,,,,,,,,,,,,,,,,,,70.74459320001188,,,,,,,,,,,,,70.7385981999978,70.74459320001188,70.74459320001188,70.94609390001278,71.17779240000527,1,1,0.42847889999393374,None,71.17851930001052,71.18525900001987,71.18525900001987,71.3900796000089,71.60074790002545,71.5940765000123,71.59413460001815,71.60074790002545,72.29540400000405,72.30161080000107,,,,,,,,,,,,,,,,,,,,,,,,,,,,,,,,,,,,,,,,,,,,,,,,,,,,,,,,,,,,,,sub137,motor,4,0,2024-12-13_09h15.15.184,ASRT_motor,2023.2.3,143.56285683068376,2024-12-13 09h15.37.925177 +0800,
sequences/sub137_initial_random.csv,2,180,2,2,red,,,,0,0,0,0,0,33,33,33,,,,,,,,,,,,,,,,,,,,,,,,,,,,,72.30161080000107,,,,,,,,,,,,,72.29604640000616,72.30161080000107,72.30161080000107,72.50153820001287,72.65013530000579,1,0,0.34197879998828284,None,72.65109210001538,72.66594840001198,72.66594840001198,72.86277580002206,73.07079210001393,73.06574240000919,73.06578730000183,73.07079210001393,73.76691540001775,,,,,,,,,,,,,,,,,,,,,,,,,,,,,,,,,,,,,,,,,,,,,,,,,,,,,,,,,,,,,,,sub137,motor,4,0,2024-12-13_09h15.15.184,ASRT_motor,2023.2.3,143.56285683068376,2024-12-13 09h15.37.925177 +0800,
sequences/sub137_initial_random.csv,0,0,0,4,red,,,,0,0,0,0,0,34,34,34,,,,,,,,,,,,,,,,,,,,,,,,,,,,,73.77592390001519,,,,,,,,,,,,,73.76798590002,73.77592390001519,73.77592390001519,73.98205580000649,74.09430210001301,2,0,0.31380830000853166,None,74.09502639999846,74.10062110002036,74.10062110002036,74.30712360001053,74.51543050000328,74.50958959999844,74.5096311000234,74.51543050000328,75.21052469999995,,,,,,,,,,,,,,,,,,,,,,,,,,,,,,,,,,,,,,,,,,,,,,,,,,,,,,,,,,,,,,,sub137,motor,4,0,2024-12-13_09h15.15.184,ASRT_motor,2023.2.3,143.56285683068376,2024-12-13 09h15.37.925177 +0800,
sequences/sub137_initial_random.csv,2,180,2,2,red,,,,0,0,0,0,0,35,35,35,,,,,,,,,,,,,,,,,,,,,,,,,,,,,75.21792460000142,,,,,,,,,,,,,75.21133560000453,75.21792460000142,75.21792460000142,75.418124000018,75.6500209000078,2,1,0.4293980000074953,None,75.65080339999986,75.66155710001476,75.66155710001476,75.86244100000476,76.07102060000761,76.06516570001259,76.06520150002325,76.07102060000761,76.7661642000021,,,,,,,,,,,,,,,,,,,,,,,,,,,,,,,,,,,,,,,,,,,,,,,,,,,,,,,,,,,,,,,sub137,motor,4,0,2024-12-13_09h15.15.184,ASRT_motor,2023.2.3,143.56285683068376,2024-12-13 09h15.37.925177 +0800,
sequences/sub137_initial_random.csv,0,0,0,4,red,,,,0,0,0,0,0,36,36,36,,,,,,,,,,,,,,,,,,,,,,,,,,,,,76.77236329999869,,,,,,,,,,,,,76.76670550002018,76.77236329999869,76.77236329999869,76.97406350000529,77.03840489999857,2,0,0.26161669997964054,None,77.03907430000254,77.05126020000898,77.05126020000898,77.25158070001635,77.46005140000489,77.45381510001607,77.45384750000085,77.46005140000489,78.15508820000105,,,,,,,,,,,,,,,,,,,,,,,,,,,,,,,,,,,,,,,,,,,,,,,,,,,,,,,,,,,,,,,sub137,motor,4,0,2024-12-13_09h15.15.184,ASRT_motor,2023.2.3,143.56285683068376,2024-12-13 09h15.37.925177 +0800,
sequences/sub137_initial_random.csv,2,180,2,2,red,,,,0,0,0,0,0,37,37,37,,,,,,,,,,,,,,,,,,,,,,,,,,,,,78.16077390001738,,,,,,,,,,,,,78.1557165000122,78.16077390001738,78.16077390001738,78.36259060000884,78.52527650000411,2,1,0.36119979998329654,None,78.5259976000234,78.53358360001585,78.53358360001585,78.73782180002308,78.9458465000207,78.9404557000089,78.9405015000084,78.9458465000207,79.64065510002547,,,,,,,,,,,,,,,,,,,,,,,,,,,,,,,,,,,,,,,,,,,,,,,,,,,,,,,,,,,,,,,sub137,motor,4,0,2024-12-13_09h15.15.184,ASRT_motor,2023.2.3,143.56285683068376,2024-12-13 09h15.37.925177 +0800,
sequences/sub137_initial_random.csv,0,0,0,4,red,,,,0,0,0,0,0,38,38,38,,,,,,,,,,,,,,,,,,,,,,,,,,,,,79.64844220000668,,,,,,,,,,,,,79.64132310001878,79.64844220000668,79.64844220000668,79.84876120000263,80.1488300000201,4,1,0.4955208000028506,None,80.14937140000984,80.15465500002028,80.15465500002028,80.36279030001606,80.57050640002126,80.56516040000133,80.56520170002477,80.57050640002126,81.26548460000777,,,,,,,,,,,,,,,,,,,,,,,,,,,,,,,,,,,,,,,,,,,,,,,,,,,,,,,,,,,,,,,sub137,motor,4,0,2024-12-13_09h15.15.184,ASRT_motor,2023.2.3,143.56285683068376,2024-12-13 09h15.37.925177 +0800,
sequences/sub137_initial_random.csv,0,0,0,4,red,,,,0,0,0,0,0,39,39,39,,,,,,,,,,,,,,,,,,,,,,,,,,,,,81.27231580001535,,,,,,,,,,,,,81.2660731000069,81.27231580001535,81.27231580001535,81.47361270000692,81.68327440001303,1,0,0.4071706999966409,None,81.68395860001328,81.69159140001284,81.69159140001284,81.89760730002308,82.10821930001839,82.10070650000125,82.10073750000447,82.10821930001839,82.80729730002349,,,,,,,,,,,,,,,,,,,,,,,,,,,,,,,,,,,,,,,,,,,,,,,,,,,,,,,,,,,,,,,sub137,motor,4,0,2024-12-13_09h15.15.184,ASRT_motor,2023.2.3,143.56285683068376,2024-12-13 09h15.37.925177 +0800,
sequences/sub137_initial_random.csv,1,90,1,3,red,,,,0,0,0,0,0,40,40,40,,,,,,,,,,,,,,,,,,,,,,,,,,,,,82.8162091000122,,,,,,,,,,,,,82.80809810000937,82.8162091000122,82.8162091000122,83.0222422000079,83.23329270002432,3,1,0.4108766999852378,None,83.23387700002058,83.24114700002247,83.24114700002247,83.4456116000074,83.65429800000857,83.64880819999962,83.6488595000119,83.65429800000857,84.34910740001942,,,,,,,,,,,,,,,,,,,,,,,,,,,,,,,,,,,,,,,,,,,,,,,,,,,,,,,,,,,,,,,sub137,motor,4,0,2024-12-13_09h15.15.184,ASRT_motor,2023.2.3,143.56285683068376,2024-12-13 09h15.37.925177 +0800,
sequences/sub137_initial_random.csv,2,180,2,2,red,,,,0,0,0,0,0,41,41,41,,,,,,,,,,,,,,,,,,,,,,,,,,,,,84.3575708999997,,,,,,,,,,,,,84.34998110000743,84.3575708999997,84.3575708999997,84.55688620000728,84.71237530000508,1,0,0.34977629999048077,None,84.7131755000155,84.72404960001586,84.72404960001586,84.92483780000475,85.13310620002449,85.12764310001512,85.12769340001978,85.13310620002449,85.82837790000485,85.83436180002172,,,,,,,,,,,,,,,,,,,,,,,,,,,,,,,,,,,,,,,,,,,,,,,,,,,,,,,,,,,,,,sub137,motor,4,0,2024-12-13_09h15.15.184,ASRT_motor,2023.2.3,143.56285683068376,2024-12-13 09h15.37.925177 +0800,
sequences/sub137_initial_random.csv,0,0,0,4,red,,,,0,0,0,0,0,42,42,42,,,,,,,,,,,,,,,,,,,,,,,,,,,,,85.83436180002172,,,,,,,,,,,,,85.82893720001448,85.83436180002172,85.83436180002172,86.03576030000113,86.28936789999716,4,1,0.4497356000065338,None,86.29001600001357,86.30135670001619,86.30135670001619,86.50121790001867,86.70953750002082,86.70339920002152,86.70343390002381,86.70953750002082,87.40352580000763,,,,,,,,,,,,,,,,,,,,,,,,,,,,,,,,,,,,,,,,,,,,,,,,,,,,,,,,,,,,,,,sub137,motor,4,0,2024-12-13_09h15.15.184,ASRT_motor,2023.2.3,143.56285683068376,2024-12-13 09h15.37.925177 +0800,
sequences/sub137_initial_random.csv,2,180,2,2,red,,,,0,0,0,0,0,43,43,43,,,,,,,,,,,,,,,,,,,,,,,,,,,,,87.4111305999977,,,,,,,,,,,,,87.40380379999988,87.4111305999977,87.4111305999977,87.61231170000974,87.81624060001923,2,1,0.4018633999803569,None,87.81692209999892,87.8226016999979,87.8226016999979,88.02917100000195,88.23789360001683,88.23287240002537,88.23291790002258,88.23789360001683,88.9338988000236,88.94381540000904,,,,,,,,,,,,,,,,,,,,,,,,,,,,,,,,,,,,,,,,,,,,,,,,,,,,,,,,,,,,,,sub137,motor,4,0,2024-12-13_09h15.15.184,ASRT_motor,2023.2.3,143.56285683068376,2024-12-13 09h15.37.925177 +0800,
sequences/sub137_initial_random.csv,3,270,3,1,red,,,,0,0,0,0,0,44,44,44,,,,,,,,,,,,,,,,,,,,,,,,,,,,,88.94381540000904,,,,,,,,,,,,,88.93459560000338,88.94381540000904,88.94381540000904,89.14739749999717,89.49775750000845,1,1,0.5471394999767654,None,89.49848520001979,89.5050356000138,89.5050356000138,89.7095828000165,89.91926210001111,89.91170900000725,89.91173490000074,89.91926210001111,90.61276710001403,,,,,,,,,,,,,,,,,,,,,,,,,,,,,,,,,,,,,,,,,,,,,,,,,,,,,,,,,,,,,,,sub137,motor,4,0,2024-12-13_09h15.15.184,ASRT_motor,2023.2.3,143.56285683068376,2024-12-13 09h15.37.925177 +0800,
sequences/sub137_initial_random.csv,3,270,3,1,red,,,,0,0,0,0,0,45,45,45,,,,,,,,,,,,,,,,,,,,,,,,,,,,,90.61906290001934,,,,,,,,,,,,,90.61341489999904,90.61906290001934,90.61906290001934,90.82036810001591,90.97742969999672,1,1,0.35122490001958795,None,90.97841160002281,90.9915456000017,90.9915456000017,91.18871280000894,91.39696500002174,91.39083530000062,91.39086780001526,91.39696500002174,92.09219419999863,,,,,,,,,,,,,,,,,,,,,,,,,,,,,,,,,,,,,,,,,,,,,,,,,,,,,,,,,,,,,,,sub137,motor,4,0,2024-12-13_09h15.15.184,ASRT_motor,2023.2.3,143.56285683068376,2024-12-13 09h15.37.925177 +0800,
sequences/sub137_initial_random.csv,3,270,3,1,red,,,,0,0,0,0,0,46,46,46,,,,,,,,,,,,,,,,,,,,,,,,,,,,,92.10172140001669,,,,,,,,,,,,,92.09307800000533,92.10172140001669,92.10172140001669,92.30745110000134,92.45404510002118,1,1,0.34582710001268424,None,92.45460640001693,92.46180849999655,92.46180849999655,92.6678549000062,92.87615820000065,92.87109900001087,92.87114180001663,92.87615820000065,93.57274270002381,93.57828410001821,,,,,,,,,,,,,,,,,,,,,,,,,,,,,,,,,,,,,,,,,,,,,,,,,,,,,,,,,,,,,,sub137,motor,4,0,2024-12-13_09h15.15.184,ASRT_motor,2023.2.3,143.56285683068376,2024-12-13 09h15.37.925177 +0800,
sequences/sub137_initial_random.csv,0,0,0,4,red,,,,0,0,0,0,0,47,47,47,,,,,,,,,,,,,,,,,,,,,,,,,,,,,93.57828410001821,,,,,,,,,,,,,93.57332970001153,93.57828410001821,93.57828410001821,93.77892229999998,94.05313270000624,4,1,0.4712835000245832,None,94.0537791000097,94.06352140000672,94.06352140000672,94.26524150001933,94.47372280000127,94.46781620002002,94.46784620001563,94.47372280000127,95.16842780000297,,,,,,,,,,,,,,,,,,,,,,,,,,,,,,,,,,,,,,,,,,,,,,,,,,,,,,,,,,,,,,,sub137,motor,4,0,2024-12-13_09h15.15.184,ASRT_motor,2023.2.3,143.56285683068376,2024-12-13 09h15.37.925177 +0800,
sequences/sub137_initial_random.csv,1,90,1,3,red,,,,0,0,0,0,0,48,48,48,,,,,,,,,,,,,,,,,,,,,,,,,,,,,95.1756612000172,,,,,,,,,,,,,95.16914990000078,95.1756612000172,95.1756612000172,95.37625470000785,95.58639800001401,3,1,0.40419699999620207,None,95.58699910002179,95.59211320002214,95.59211320002214,95.79997200000798,96.00812980000046,96.00225750001846,96.00229520001449,96.00812980000046,96.70329220002168,,,,,,,,,,,,,,,,,,,,,,,,,,,,,,,,,,,,,,,,,,,,,,,,,,,,,,,,,,,,,,,sub137,motor,4,0,2024-12-13_09h15.15.184,ASRT_motor,2023.2.3,143.56285683068376,2024-12-13 09h15.37.925177 +0800,
sequences/sub137_initial_random.csv,2,180,2,2,red,,,,0,0,0,0,0,49,49,49,,,,,,,,,,,,,,,,,,,,,,,,,,,,,96.70963680002023,,,,,,,,,,,,,96.70398730001762,96.70963680002023,96.70963680002023,96.91087479999987,97.11248830001568,2,1,0.39468070000293665,None,97.11366230002022,97.12620070000412,97.12620070000412,97.32045510000899,97.528833999997,97.52297859999817,97.52302010002313,97.528833999997,98.22387820002041,,,,,,,,,,,,,,,,,,,,,,,,,,,,,,,,,,,,,,,,,,,,,,,,,,,,,,,,,,,,,,,sub137,motor,4,0,2024-12-13_09h15.15.184,ASRT_motor,2023.2.3,143.56285683068376,2024-12-13 09h15.37.925177 +0800,
sequences/sub137_initial_random.csv,2,180,2,2,red,,,,0,0,0,0,0,50,50,50,,,,,,,,,,,,,,,,,,,,,,,,,,,,,98.23214259999804,,,,,,,,,,,,,98.22457360001863,98.23214259999804,98.23214259999804,98.4319925000018,98.6087507000193,2,1,0.3713236999756191,None,98.60952389999875,98.61644770001294,98.61644770001294,98.82047570002032,99.02875440000207,99.02371360000689,99.02375930000562,99.02875440000207,99.72473159999936,99.72969320000266,,,,,,,,,,,,,,,,,,,,,,,,,,,,,,,,,,,,,,,,,,,,,,,,,,,,,,,,,,,,,,sub137,motor,4,0,2024-12-13_09h15.15.184,ASRT_motor,2023.2.3,143.56285683068376,2024-12-13 09h15.37.925177 +0800,
sequences/sub137_initial_random.csv,1,90,1,3,red,,,,0,0,0,0,0,51,51,51,,,,,,,,,,,,,,,,,,,,,,,,,,,,,99.72969320000266,,,,,,,,,,,,,99.72531430001254,99.72969320000266,99.72969320000266,99.93156080000335,100.1648216000176,2,0,0.42937530000926927,None,100.1656728000089,100.17486430000281,100.17486430000281,100.37649960000999,100.59167740002158,100.58425220000208,100.58431750000454,100.59167740002158,101.28598990000319,,,,,,,,,,,,,,,,,,,,,,,,,,,,,,,,,,,,,,,,,,,,,,,,,,,,,,,,,,,,,,,sub137,motor,4,0,2024-12-13_09h15.15.184,ASRT_motor,2023.2.3,143.56285683068376,2024-12-13 09h15.37.925177 +0800,
sequences/sub137_initial_random.csv,1,90,1,3,red,,,,0,0,0,0,0,52,52,52,,,,,,,,,,,,,,,,,,,,,,,,,,,,,101.29599569999846,,,,,,,,,,,,,101.28671650000615,101.29599569999846,101.29599569999846,101.50094030000037,101.71949080002378,3,1,0.41560999999637716,None,101.72018870001193,101.72847470000852,101.72847470000852,101.93166760000167,102.14342400000896,102.1351571000123,102.13524050000706,102.14342400000896,102.83566110001993,,,,,,,,,,,,,,,,,,,,,,,,,,,,,,,,,,,,,,,,,,,,,,,,,,,,,,,,,,,,,,,sub137,motor,4,0,2024-12-13_09h15.15.184,ASRT_motor,2023.2.3,143.56285683068376,2024-12-13 09h15.37.925177 +0800,
sequences/sub137_initial_random.csv,1,90,1,3,red,,,,0,0,0,0,0,53,53,53,,,,,,,,,,,,,,,,,,,,,,,,,,,,,102.84202650000225,,,,,,,,,,,,,102.83625110000139,102.84202650000225,102.84202650000225,103.04246340002283,103.19109690000187,3,1,0.3443834000208881,None,103.19190180001897,103.197539100016,103.197539100016,103.40426390001085,103.6120417000202,103.60594780000974,103.60598270001356,103.6120417000202,104.30803770001512,,,,,,,,,,,,,,,,,,,,,,,,,,,,,,,,,,,,,,,,,,,,,,,,,,,,,,,,,,,,,,,sub137,motor,4,0,2024-12-13_09h15.15.184,ASRT_motor,2023.2.3,143.56285683068376,2024-12-13 09h15.37.925177 +0800,
sequences/sub137_initial_random.csv,2,180,2,2,red,,,,0,0,0,0,0,54,54,54,,,,,,,,,,,,,,,,,,,,,,,,,,,,,104.3159791000071,,,,,,,,,,,,,104.30887180002173,104.3159791000071,104.3159791000071,104.52220560002024,104.89839780001785,2,1,0.5779873999999836,None,104.89891010001884,104.90730980000808,104.90730980000808,105.11224620000576,105.32044969999697,105.31488760001957,105.31493970000884,105.32044969999697,106.0150896999985,,,,,,,,,,,,,,,,,,,,,,,,,,,,,,,,,,,,,,,,,,,,,,,,,,,,,,,,,,,,,,,sub137,motor,4,0,2024-12-13_09h15.15.184,ASRT_motor,2023.2.3,143.56285683068376,2024-12-13 09h15.37.925177 +0800,
sequences/sub137_initial_random.csv,3,270,3,1,red,,,,0,0,0,0,0,55,55,55,,,,,,,,,,,,,,,,,,,,,,,,,,,,,106.02324080001563,,,,,,,,,,,,,106.01591940000071,106.02324080001563,106.02324080001563,106.22390290000476,106.48475400000461,1,1,0.4577864999882877,None,106.48543830000563,106.49502580001717,106.49502580001717,106.6950393000152,106.90327120001893,106.89820740002324,106.89824290000251,106.90327120001893,107.59865200001514,107.60462520000874,,,,,,,,,,,,,,,,,,,,,,,,,,,,,,,,,,,,,,,,,,,,,,,,,,,,,,,,,,,,,,sub137,motor,4,0,2024-12-13_09h15.15.184,ASRT_motor,2023.2.3,143.56285683068376,2024-12-13 09h15.37.925177 +0800,
sequences/sub137_initial_random.csv,3,270,3,1,red,,,,0,0,0,0,0,56,56,56,,,,,,,,,,,,,,,,,,,,,,,,,,,,,107.60462520000874,,,,,,,,,,,,,107.59925930001191,107.60462520000874,107.60462520000874,107.8062101000105,108.05980550000095,2,0,0.4521392000024207,None,108.06049270002404,108.07489320001332,108.07489320001332,108.27179480000632,108.48219460001565,108.47562350000953,108.47568160001538,108.48219460001565,109.17528970001149,109.18160860001808,,,,,,,,,,,,,,,,,,,,,,,,,,,,,,,,,,,,,,,,,,,,,,,,,,,,,,,,,,,,,,sub137,motor,4,0,2024-12-13_09h15.15.184,ASRT_motor,2023.2.3,143.56285683068376,2024-12-13 09h15.37.925177 +0800,
sequences/sub137_initial_random.csv,2,180,2,2,red,,,,0,0,0,0,0,57,57,57,,,,,,,,,,,,,,,,,,,,,,,,,,,,,109.18160860001808,,,,,,,,,,,,,109.17587730000378,109.18160860001808,109.18160860001808,109.38295940001262,109.77522450001561,2,1,0.5897087999910582,None,109.77588290002313,109.78221240002313,109.78221240002313,109.98706310000853,110.19518580002477,110.19084000002476,110.19087260001106,110.19518580002477,110.8915691000002,110.89749689999735,,,,,,,,,,,,,,,,,,,,,,,,,,,,,,,,,,,,,,,,,,,,,,,,,,,,,,,,,,,,,,sub137,motor,4,0,2024-12-13_09h15.15.184,ASRT_motor,2023.2.3,143.56285683068376,2024-12-13 09h15.37.925177 +0800,
sequences/sub137_initial_random.csv,3,270,3,1,red,,,,0,0,0,0,0,58,58,58,,,,,,,,,,,,,,,,,,,,,,,,,,,,,110.89749689999735,,,,,,,,,,,,,110.89227060001576,110.89749689999735,110.89749689999735,111.0978309000202,111.39575560000958,1,1,0.4865198000043165,None,111.39638360001845,111.40197780000744,111.40197780000744,111.60513000001083,111.81454130000202,111.80812010000227,111.80817070000921,111.81454130000202,112.5085095000104,112.51428280002438,,,,,,,,,,,,,,,,,,,,,,,,,,,,,,,,,,,,,,,,,,,,,,,,,,,,,,,,,,,,,,sub137,motor,4,0,2024-12-13_09h15.15.184,ASRT_motor,2023.2.3,143.56285683068376,2024-12-13 09h15.37.925177 +0800,
sequences/sub137_initial_random.csv,2,180,2,2,red,,,,0,0,0,0,0,59,59,59,,,,,,,,,,,,,,,,,,,,,,,,,,,,,112.51428280002438,,,,,,,,,,,,,112.50914229999762,112.51428280002438,112.51428280002438,112.7158463000087,113.04687600000761,2,1,0.52905019998434,None,113.04760450002505,113.05358240002533,113.05358240002533,113.25760710000759,113.46612740002456,113.46096940001007,113.46101349999662,113.46612740002456,114.16189509999822,114.16766560001997,,,,,,,,,,,,,,,,,,,,,,,,,,,,,,,,,,,,,,,,,,,,,,,,,,,,,,,,,,,,,,sub137,motor,4,0,2024-12-13_09h15.15.184,ASRT_motor,2023.2.3,143.56285683068376,2024-12-13 09h15.37.925177 +0800,
sequences/sub137_initial_random.csv,2,180,2,2,red,,,,0,0,0,0,0,60,60,60,,,,,,,,,,,,,,,,,,,,,,,,,,,,,114.16766560001997,,,,,,,,,,,,,114.16248570001335,114.16766560001997,114.16766560001997,114.36889870002051,114.53775410001981,2,1,0.3664121000037994,None,114.53833100001793,114.54461050001555,114.54461050001555,114.7510129000002,114.95885180000914,114.95383770001354,114.95387700002175,114.95885180000914,115.6543908000167,,,,,,,,,,,,,,,,,,,,,,,,,,,,,,,,,,,,,,,,,,,,,,,,,,,,,,,,,,,,,,,sub137,motor,4,0,2024-12-13_09h15.15.184,ASRT_motor,2023.2.3,143.56285683068376,2024-12-13 09h15.37.925177 +0800,
sequences/sub137_initial_random.csv,2,180,2,2,red,,,,0,0,0,0,0,61,61,61,,,,,,,,,,,,,,,,,,,,,,,,,,,,,115.66440930002136,,,,,,,,,,,,,115.65503160000662,115.66440930002136,115.66440930002136,115.8691558999999,116.017607900023,2,1,0.3485276999999769,None,116.0182591000048,116.023858200002,116.023858200002,116.22978200000944,116.43795940000564,116.43209390001721,116.43213200001628,116.43795940000564,117.1332244000223,,,,,,,,,,,,,,,,,,,,,,,,,,,,,,,,,,,,,,,,,,,,,,,,,,,,,,,,,,,,,,,sub137,motor,4,0,2024-12-13_09h15.15.184,ASRT_motor,2023.2.3,143.56285683068376,2024-12-13 09h15.37.925177 +0800,
sequences/sub137_initial_random.csv,1,90,1,3,red,,,,0,0,0,0,0,62,62,62,,,,,,,,,,,,,,,,,,,,,,,,,,,,,117.1399430000165,,,,,,,,,,,,,117.13390670000808,117.1399430000165,117.1399430000165,117.3413264999981,117.65885249999701,3,1,0.5101636000035796,None,117.65996000001905,117.66877940000268,117.66877940000268,117.86855420001666,118.07697130000452,118.0711945000221,118.07124220000696,118.07697130000452,118.77286660001846,,,,,,,,,,,,,,,,,,,,,,,,,,,,,,,,,,,,,,,,,,,,,,,,,,,,,,,,,,,,,,,sub137,motor,4,0,2024-12-13_09h15.15.184,ASRT_motor,2023.2.3,143.56285683068376,2024-12-13 09h15.37.925177 +0800,
sequences/sub137_initial_random.csv,2,180,2,2,red,,,,0,0,0,0,0,63,63,63,,,,,,,,,,,,,,,,,,,,,,,,,,,,,118.78313590001198,,,,,,,,,,,,,118.77417390001938,118.78313590001198,118.78313590001198,118.9897661000141,119.1702929000021,2,1,0.38051099999574944,None,119.17116880000685,119.17856120000943,119.17856120000943,119.38281170002301,119.59107310001855,119.58539839999867,119.58543450001162,119.59107310001855,120.28554260000237,120.29201880001347,,,,,,,,,,,,,,,,,,,,,,,,,,,,,,,,,,,,,,,,,,,,,,,,,,,,,,,,,,,,,,sub137,motor,4,0,2024-12-13_09h15.15.184,ASRT_motor,2023.2.3,143.56285683068376,2024-12-13 09h15.37.925177 +0800,
sequences/sub137_initial_random.csv,3,270,3,1,red,,,,0,0,0,0,0,64,64,64,,,,,,,,,,,,,,,,,,,,,,,,,,,,,120.29201880001347,,,,,,,,,,,,,120.2859265000152,120.29201880001347,120.29201880001347,120.49415990000125,120.77442100000917,1,1,0.47695110001950525,None,120.7750874000194,120.7815333000035,120.7815333000035,120.98664270000882,121.19486889999826,121.18957970000338,121.18961800000397,121.19486889999826,121.89073610000196,121.89598690002458,,,,,,,,,,,,,,,,,,,,,,,,,,,,,,,,,,,,,,,,,,,,,,,,,,,,,,,,,,,,,,sub137,motor,4,0,2024-12-13_09h15.15.184,ASRT_motor,2023.2.3,143.56285683068376,2024-12-13 09h15.37.925177 +0800,
sequences/sub137_initial_random.csv,2,180,2,2,red,,,,0,0,0,0,0,65,65,65,,,,,,,,,,,,,,,,,,,,,,,,,,,,,121.89598690002458,,,,,,,,,,,,,121.89132850000169,121.89598690002458,121.89598690002458,122.09757520002313,122.27521240001079,1,0,0.37572110001929104,None,122.27588930001366,122.2843353000062,122.2843353000062,122.48656650001067,122.69567130002542,122.6893067000201,122.68935820000479,122.69567130002542,123.39037140001892,123.39597350000986,,,,,,,,,,,,,,,,,,,,,,,,,,,,,,,,,,,,,,,,,,,,,,,,,,,,,,,,,,,,,,sub137,motor,4,0,2024-12-13_09h15.15.184,ASRT_motor,2023.2.3,143.56285683068376,2024-12-13 09h15.37.925177 +0800,
sequences/sub137_initial_random.csv,1,90,1,3,red,,,,0,0,0,0,0,66,66,66,,,,,,,,,,,,,,,,,,,,,,,,,,,,,123.39597350000986,,,,,,,,,,,,,123.39099380001426,123.39597350000986,123.39597350000986,123.59791460001725,123.7807442000194,3,1,0.3783599000016693,None,123.78146700002253,123.78840030002175,123.78840030002175,123.99348360000295,124.20226780002122,124.19655320001766,124.19661060001818,124.20226780002122,124.8968264000141,,,,,,,,,,,,,,,,,,,,,,,,,,,,,,,,,,,,,,,,,,,,,,,,,,,,,,,,,,,,,,,sub137,motor,4,0,2024-12-13_09h15.15.184,ASRT_motor,2023.2.3,143.56285683068376,2024-12-13 09h15.37.925177 +0800,
sequences/sub137_initial_random.csv,1,90,1,3,red,,,,0,0,0,0,0,67,67,67,,,,,,,,,,,,,,,,,,,,,,,,,,,,,124.90519820002373,,,,,,,,,,,,,124.89757550001377,124.90519820002373,124.90519820002373,125.10503950002021,125.41256470000371,3,1,0.501147500006482,None,125.41333680000389,125.41994010002236,125.41994010002236,125.62557000000379,125.83394030001364,125.82776600000216,125.82780310002272,125.83394030001364,126.52906260002055,,,,,,,,,,,,,,,,,,,,,,,,,,,,,,,,,,,,,,,,,,,,,,,,,,,,,,,,,,,,,,,sub137,motor,4,0,2024-12-13_09h15.15.184,ASRT_motor,2023.2.3,143.56285683068376,2024-12-13 09h15.37.925177 +0800,
sequences/sub137_initial_random.csv,3,270,3,1,red,,,,0,0,0,0,0,68,68,68,,,,,,,,,,,,,,,,,,,,,,,,,,,,,126.53577930000029,,,,,,,,,,,,,126.52984350000042,126.53577930000029,126.53577930000029,126.7364681000181,126.95064570000977,1,1,0.4043167000054382,None,126.95130169999902,126.95665990002453,126.95665990002453,127.16009859999758,127.3683039000025,127.36265500000445,127.36269999999786,127.3683039000025,128.06298879999667,,,,,,,,,,,,,,,,,,,,,,,,,,,,,,,,,,,,,,,,,,,,,,,,,,,,,,,,,,,,,,,sub137,motor,4,0,2024-12-13_09h15.15.184,ASRT_motor,2023.2.3,143.56285683068376,2024-12-13 09h15.37.925177 +0800,
sequences/sub137_initial_random.csv,1,90,1,3,red,,,,0,0,0,0,0,69,69,69,,,,,,,,,,,,,,,,,,,,,,,,,,,,,128.06978869999875,,,,,,,,,,,,,128.06364860001486,128.06978869999875,128.06978869999875,128.2717183000059,128.51764689999982,3,1,0.4392357000033371,None,128.5182335000136,128.52371710000443,128.52371710000443,128.7297376000206,128.93820020000567,128.93285260000266,128.93289320002077,128.93820020000567,129.63365500001237,129.63937859999714,,,,,,,,,,,,,,,,,,,,,,,,,,,,,,,,,,,,,,,,,,,,,,,,,,,,,,,,,,,,,,sub137,motor,4,0,2024-12-13_09h15.15.184,ASRT_motor,2023.2.3,143.56285683068376,2024-12-13 09h15.37.925177 +0800,
sequences/sub137_initial_random.csv,1,90,1,3,red,,,,0,0,0,0,0,70,70,70,,,,,,,,,,,,,,,,,,,,,,,,,,,,,129.63937859999714,,,,,,,,,,,,,129.63426780002192,129.63937859999714,129.63937859999714,129.84091510000871,130.06528239999898,3,1,0.4210103999939747,None,130.06597270001657,130.07156070001656,130.07156070001656,130.27824939999846,130.48643380001886,130.4815958000254,130.48164250000264,130.48643380001886,131.18241000000853,131.19042710002395,,,,,,,,,,,,,,,,,,,,,,,,,,,,,,,,,,,,,,,,,,,,,,,,,,,,,,,,,,,,,,sub137,motor,4,0,2024-12-13_09h15.15.184,ASRT_motor,2023.2.3,143.56285683068376,2024-12-13 09h15.37.925177 +0800,
sequences/sub137_initial_random.csv,0,0,0,4,red,,,,0,0,0,0,0,71,71,71,,,,,,,,,,,,,,,,,,,,,,,,,,,,,131.19042710002395,,,,,,,,,,,,,131.18306270000176,131.19042710002395,131.19042710002395,131.39637550001498,131.6349713000236,4,1,0.4372578999900725,None,131.63581249999697,131.64450090000173,131.64450090000173,131.84760510001797,132.05588820000412,132.05055630000425,132.0505942000018,132.05588820000412,132.75114600002416,132.75676509999903,,,,,,,,,,,,,,,,,,,,,,,,,,,,,,,,,,,,,,,,,,,,,,,,,,,,,,,,,,,,,,sub137,motor,4,0,2024-12-13_09h15.15.184,ASRT_motor,2023.2.3,143.56285683068376,2024-12-13 09h15.37.925177 +0800,
sequences/sub137_initial_random.csv,2,180,2,2,red,,,,0,0,0,0,0,72,72,72,,,,,,,,,,,,,,,,,,,,,,,,,,,,,132.75676509999903,,,,,,,,,,,,,132.7517133000074,132.75676509999903,132.75676509999903,132.95869390000007,133.10762460000115,2,1,0.34596659999806434,None,133.10841300000902,133.1144944000116,133.1144944000116,133.31942080002045,133.52767280000262,133.52166930001113,133.52169950000825,133.52767280000262,134.22273320000386,,,,,,,,,,,,,,,,,,,,,,,,,,,,,,,,,,,,,,,,,,,,,,,,,,,,,,,,,,,,,,,sub137,motor,4,0,2024-12-13_09h15.15.184,ASRT_motor,2023.2.3,143.56285683068376,2024-12-13 09h15.37.925177 +0800,
sequences/sub137_initial_random.csv,0,0,0,4,red,,,,0,0,0,0,0,73,73,73,,,,,,,,,,,,,,,,,,,,,,,,,,,,,134.2305880000058,,,,,,,,,,,,,134.22345050002332,134.2305880000058,134.2305880000058,134.4310109000071,134.66935350000858,4,1,0.43373089999658987,None,134.67015839999658,134.6793856000004,134.6793856000004,134.8821874000132,135.0928600000043,135.086463500018,135.08650960001978,135.0928600000043,135.78629650000948,135.79396570002427,,,,,,,,,,,,,,,,,,,,,,,,,,,,,,,,,,,,,,,,,,,,,,,,,,,,,,,,,,,,,,sub137,motor,4,0,2024-12-13_09h15.15.184,ASRT_motor,2023.2.3,143.56285683068376,2024-12-13 09h15.37.925177 +0800,
sequences/sub137_initial_random.csv,0,0,0,4,red,,,,0,0,0,0,0,74,74,74,,,,,,,,,,,,,,,,,,,,,,,,,,,,,135.79396570002427,,,,,,,,,,,,,135.78695290000178,135.79396570002427,135.79396570002427,135.9938156999997,136.19663780002156,4,1,0.394466800004011,None,136.19717860000674,136.20238689999678,136.20238689999678,136.409919800004,136.61812700002338,136.61214949999703,136.6121866000176,136.61812700002338,137.3122739000246,,,,,,,,,,,,,,,,,,,,,,,,,,,,,,,,,,,,,,,,,,,,,,,,,,,,,,,,,,,,,,,sub137,motor,4,0,2024-12-13_09h15.15.184,ASRT_motor,2023.2.3,143.56285683068376,2024-12-13 09h15.37.925177 +0800,
sequences/sub137_initial_random.csv,0,0,0,4,red,,,,0,0,0,0,0,75,75,75,,,,,,,,,,,,,,,,,,,,,,,,,,,,,137.31892670001253,,,,,,,,,,,,,137.3125155000016,137.31892670001253,137.31892670001253,137.52407919999678,137.78526730000158,4,1,0.4543751000019256,None,137.78600030002417,137.79464310000185,137.79464310000185,137.993089399999,138.202621000004,138.19748620002065,138.1975378000061,138.202621000004,138.89717280000332,138.90553030002047,,,,,,,,,,,,,,,,,,,,,,,,,,,,,,,,,,,,,,,,,,,,,,,,,,,,,,,,,,,,,,sub137,motor,4,0,2024-12-13_09h15.15.184,ASRT_motor,2023.2.3,143.56285683068376,2024-12-13 09h15.37.925177 +0800,
sequences/sub137_initial_random.csv,0,0,0,4,red,,,,0,0,0,0,0,76,76,76,,,,,,,,,,,,,,,,,,,,,,,,,,,,,138.90553030002047,,,,,,,,,,,,,138.89785619999748,138.90553030002047,138.90553030002047,139.11186830000952,139.28224020000198,4,1,0.3717649000172969,None,139.2830031000194,139.29116510000313,139.29116510000313,139.49289390002377,139.70471940000425,139.6977771000238,139.69782870000927,139.70471940000425,140.39906870000414,140.4077866000007,,,,,,,,,,,,,,,,,,,,,,,,,,,,,,,,,,,,,,,,,,,,,,,,,,,,,,,,,,,,,,sub137,motor,4,0,2024-12-13_09h15.15.184,ASRT_motor,2023.2.3,143.56285683068376,2024-12-13 09h15.37.925177 +0800,
sequences/sub137_initial_random.csv,3,270,3,1,red,,,,0,0,0,0,0,77,77,77,,,,,,,,,,,,,,,,,,,,,,,,,,,,,140.4077866000007,,,,,,,,,,,,,140.3998807000171,140.4077866000007,140.4077866000007,140.61117840002407,140.8354180000024,1,1,0.4207485999795608,None,140.83603390000644,140.84208670002408,140.84208670002408,141.04870330000995,141.25686809999752,141.25166330000502,141.25170260001323,141.25686809999752,141.95258380001178,141.959084800008,,,,,,,,,,,,,,,,,,,,,,,,,,,,,,,,,,,,,,,,,,,,,,,,,,,,,,,,,,,,,,sub137,motor,4,0,2024-12-13_09h15.15.184,ASRT_motor,2023.2.3,143.56285683068376,2024-12-13 09h15.37.925177 +0800,
sequences/sub137_initial_random.csv,3,270,3,1,red,,,,0,0,0,0,0,78,78,78,,,,,,,,,,,,,,,,,,,,,,,,,,,,,141.959084800008,,,,,,,,,,,,,141.95328690001043,141.959084800008,141.959084800008,142.16364159999648,142.3580511000182,1,1,0.39464759998372756,None,142.35895490000257,142.36657000001287,142.36657000001287,142.56938200001605,142.77960170002189,142.77325290002045,142.77330510001048,142.77960170002189,143.47315150001668,143.47920339999837,,,,,,,,,,,,,,,,,,,,,,,,,,,,,,,,,,,,,,,,,,,,,,,,,,,,,,,,,,,,,,sub137,motor,4,0,2024-12-13_09h15.15.184,ASRT_motor,2023.2.3,143.56285683068376,2024-12-13 09h15.37.925177 +0800,
sequences/sub137_initial_random.csv,3,270,3,1,red,,,,0,0,0,0,0,79,79,79,,,,,,,,,,,,,,,,,,,,,,,,,,,,,143.47920339999837,,,,,,,,,,,,,143.47370010000304,143.47920339999837,143.47920339999837,143.68068089999724,143.82203010001103,1,1,0.3396713000256568,None,143.82270220000646,143.82820360001642,143.82820360001642,144.03473750001285,144.2437484000111,144.23795960002462,144.23801860000822,144.2437484000111,144.93823190001422,,,,,,,,,,,,,,,,,,,,,,,,,,,,,,,,,,,,,,,,,,,,,,,,,,,,,,,,,,,,,,,sub137,motor,4,0,2024-12-13_09h15.15.184,ASRT_motor,2023.2.3,143.56285683068376,2024-12-13 09h15.37.925177 +0800,
sequences/sub137_initial_random.csv,1,90,1,3,red,,,,0,0,0,0,0,80,80,80,,,,,,,,,,,,,,,,,,,,,,,,,,,,,144.94687980000162,,,,,,,,,,,,,144.93894069999806,144.94687980000162,144.94687980000162,145.15314490001765,145.40497870001127,3,1,0.4524284999934025,None,145.40568330002134,145.41331020000507,145.41331020000507,145.61813889999758,145.8262386000133,145.8211924000061,145.82123790000333,145.8262386000133,146.5219594000082,146.52729570001247,,,,,,,,,,,,,,,,,,,,,,,,,,,,,,,,,,,,,,,,,,,,,,,,,,,,,,,,,,,,,,sub137,motor,4,0,2024-12-13_09h15.15.184,ASRT_motor,2023.2.3,143.56285683068376,2024-12-13 09h15.37.925177 +0800,
sequences/sub137_initial_random.csv,0,0,0,4,red,,,,0,0,0,0,0,81,81,81,,,,,,,,,,,,,,,,,,,,,,,,,,,,,146.52729570001247,,,,,,,,,,,,,146.52255740002147,146.52729570001247,146.52729570001247,146.72910170000978,146.98199800000293,4,1,0.4475193000107538,None,146.98288350002258,146.98948710001423,146.98948710001423,147.19450420001522,147.40315520000877,147.3972827999969,147.3973276000179,147.40315520000877,148.09785150000243,148.10383210002328,,,,,,,,,,,,,,,,,,,,,,,,,,,,,,,,,,,,,,,,,,,,,,,,,,,,,,,,,,,,,,sub137,motor,4,0,2024-12-13_09h15.15.184,ASRT_motor,2023.2.3,143.56285683068376,2024-12-13 09h15.37.925177 +0800,
sequences/sub137_initial_random.csv,0,0,0,4,red,,,,0,0,0,0,0,82,82,82,,,,,,,,,,,,,,,,,,,,,,,,,,,,,148.10383210002328,,,,,,,,,,,,,148.09841730000335,148.10383210002328,148.10383210002328,148.30591340002138,148.47591639999882,4,1,0.36677019999478944,None,148.47669740000856,148.48537330000545,148.48537330000545,148.6874410000164,148.8958927000058,148.8899466000148,148.88998460001312,148.8958927000058,149.59024250000948,,,,,,,,,,,,,,,,,,,,,,,,,,,,,,,,,,,,,,,,,,,,,,,,,,,,,,,,,,,,,,,sub137,motor,4,0,2024-12-13_09h15.15.184,ASRT_motor,2023.2.3,143.56285683068376,2024-12-13 09h15.37.925177 +0800,
sequences/sub137_initial_random.csv,1,90,1,3,red,,,,0,0,0,0,0,83,83,83,,,,,,,,,,,,,,,,,,,,,,,,,,,,,149.59983020002255,,,,,,,,,,,,,149.59151520000887,149.59983020002255,149.59983020002255,149.80544930000906,150.12233390001347,3,1,0.5175205999985337,None,150.1231025000161,150.1312842000043,150.1312842000043,150.332942500012,150.54490670000087,150.538603300025,150.53863630001433,150.54490670000087,151.24313580000307,,,,,,,,,,,,,,,,,,,,,,,,,,,,,,,,,,,,,,,,,,,,,,,,,,,,,,,,,,,,,,,sub137,motor,4,0,2024-12-13_09h15.15.184,ASRT_motor,2023.2.3,143.56285683068376,2024-12-13 09h15.37.925177 +0800,
sequences/sub137_initial_random.csv,2,180,2,2,red,,,,0,0,0,0,0,84,84,84,,,,,,,,,,,,,,,,,,,,,,,,,,,,,151.24977370002307,,,,,,,,,,,,,151.2438255000161,151.24977370002307,151.24977370002307,151.45169750001514,151.85199360002298,2,1,0.5926247000170406,None,151.85271400000784,151.86191070001223,151.86191070001223,152.0620485000254,152.27080560001195,152.26391780000995,152.2639319000009,152.27080560001195,152.96527080002124,,,,,,,,,,,,,,,,,,,,,,,,,,,,,,,,,,,,,,,,,,,,,,,,,,,,,,,,,,,,,,,sub137,motor,4,0,2024-12-13_09h15.15.184,ASRT_motor,2023.2.3,143.56285683068376,2024-12-13 09h15.37.925177 +0800,
,,,,,,,,,,,,,,,,,,,,,,,,,,,,,,,,,,,,,,,,,,,,,,,,,,,,,,,,,,,,,,,,,,,,,,,,,,,,,152.96543350000866,153.0010450000118,153.0010450000118,259.72781440001563,space,106.71956399999908,None,259.7286831000238,259.735224700009,259.735224700009,259.735224700009,292.87971410001046,space,33.1395297999843,None,,,,,,,,,,,,,,,,,,,,,,,,,,,,,,,,,,,,,,,,,,,,,,,sub137,motor,4,0,2024-12-13_09h15.15.184,ASRT_motor,2023.2.3,143.56285683068376,2024-12-13 09h15.37.925177 +0800,
,1,90,2,2,red,sequences/sub137_practice_sequence_00.csv,,,,,,,,,,,0,0,0,0,0,0,0,32,,,,,,,,,,,,,,,,,,,,,293.91063140000915,,,,,,,,,,292.9061921000248,292.91010880001704,293.8858225000149,293.9067763000203,293.91063140000915,293.91063140000915,294.11477500002366,294.47083130001556,2,1,0.5555097000033129,None,294.4720001000096,294.4791344999976,294.4791344999976,294.6842147000134,294.8924128000217,294.886393599998,294.8864349000214,294.8924128000217,295.5873962000187,,,,,,,,,,,,,,,,,,,,,,,,,,,,,,,,,,,,,,,,,,,,,,,,,,,,,,,,,,,,,,,sub137,motor,4,0,2024-12-13_09h15.15.184,ASRT_motor,2023.2.3,143.56285683068376,2024-12-13 09h15.37.925177 +0800,
,3,270,0,4,red,sequences/sub137_practice_sequence_00.csv,,,,,,,,,,,0,0,0,0,0,1,1,84,,,,,,,,,,,,,,,,,,,,,295.59362620001775,,,,,,,,,,,,,295.58795929999906,295.59362620001775,295.59362620001775,295.7950207000249,296.2281891000166,4,1,0.6294420000049286,None,296.22916280000936,296.23513420001836,296.23513420001836,296.4407074000046,296.6490256000252,296.6435335999995,296.6435686000041,296.6490256000252,297.34435840000515,,,,,,,,,,,,,,,,,,,,,,,,,,,,,,,,,,,,,,,,,,,,,,,,,,,,,,,,,,,,,,,sub137,motor,4,0,2024-12-13_09h15.15.184,ASRT_motor,2023.2.3,143.56285683068376,2024-12-13 09h15.37.925177 +0800,
,0,0,1,3,red,sequences/sub137_practice_sequence_00.csv,,,,,,,,,,,0,0,0,0,0,2,2,64,,,,,,,,,,,,,,,,,,,,,297.3502625999972,,,,,,,,,,,,,297.34504020001623,297.3502625999972,297.3502625999972,297.55207600002177,297.9514122999972,3,1,0.595390700007556,None,297.9520099000074,297.95834670000477,297.95834670000477,298.1634222000139,298.372728700022,298.36684270002297,298.36690150000504,298.372728700022,299.0678191000188,299.0751077000168,,,,,,,,,,,,,,,,,,,,,,,,,,,,,,,,,,,,,,,,,,,,,,,,,,,,,,,,,,,,,,sub137,motor,4,0,2024-12-13_09h15.15.184,ASRT_motor,2023.2.3,143.56285683068376,2024-12-13 09h15.37.925177 +0800,
,1,90,2,2,red,sequences/sub137_practice_sequence_00.csv,,,,,,,,,,,0,0,0,0,0,3,3,22,,,,,,,,,,,,,,,,,,,,,299.0751077000168,,,,,,,,,,,,,299.06866170000285,299.0751077000168,299.0751077000168,299.273924100009,299.5200207000016,2,1,0.4423049000033643,None,299.52049000002444,299.52851150001516,299.52851150001516,299.7331975999987,299.9407708000217,299.9346519000246,299.9346809000126,299.9407708000217,300.6352900000056,,,,,,,,,,,,,,,,,,,,,,,,,,,,,,,,,,,,,,,,,,,,,,,,,,,,,,,,,,,,,,,sub137,motor,4,0,2024-12-13_09h15.15.184,ASRT_motor,2023.2.3,143.56285683068376,2024-12-13 09h15.37.925177 +0800,
,2,180,3,1,red,sequences/sub137_practice_sequence_00.csv,,,,,,,,,,,0,0,0,0,0,4,4,14,,,,,,,,,,,,,,,,,,,,,300.6423628000193,,,,,,,,,,,,,300.6358836000145,300.6423628000193,300.6423628000193,300.84335300000384,301.21440740002436,4,0,0.5649874999944586,None,301.21498540000175,301.22320570002194,301.22320570002194,301.4268661000242,301.63504750002176,301.62960750001366,301.62964940001257,301.63504750002176,302.3298403000226,,,,,,,,,,,,,,,,,,,,,,,,,,,,,,,,,,,,,,,,,,,,,,,,,,,,,,,,,,,,,,,sub137,motor,4,0,2024-12-13_09h15.15.184,ASRT_motor,2023.2.3,143.56285683068376,2024-12-13 09h15.37.925177 +0800,
,0,0,1,3,red,sequences/sub137_practice_sequence_00.csv,,,,,,,,,,,0,0,0,0,0,5,5,81,,,,,,,,,,,,,,,,,,,,,302.3368606000149,,,,,,,,,,,,,302.33054860000266,302.3368606000149,302.3368606000149,302.53817130002426,303.00420600001235,3,1,0.6599067999923136,None,303.0054711000121,303.017510900012,303.017510900012,303.2137010000006,303.41970830000355,303.41440259999945,303.41443960001925,303.41970830000355,304.11485760001233,,,,,,,,,,,,,,,,,,,,,,,,,,,,,,,,,,,,,,,,,,,,,,,,,,,,,,,,,,,,,,,sub137,motor,4,0,2024-12-13_09h15.15.184,ASRT_motor,2023.2.3,143.56285683068376,2024-12-13 09h15.37.925177 +0800,
,2,180,3,1,red,sequences/sub137_practice_sequence_00.csv,,,,,,,,,,,0,0,0,0,0,6,6,4,,,,,,,,,,,,,,,,,,,,,304.1211889999977,,,,,,,,,,,,,304.1155032000097,304.1211889999977,304.1211889999977,304.32285409999895,304.7966589000134,1,1,0.6695866000081878,None,304.79729090002365,304.8046699000115,304.8046699000115,305.01006150001194,305.2199099000136,305.21336660001543,305.2134176000254,305.2199099000136,305.91428540000925,305.9197217000183,,,,,,,,,,,,,,,,,,,,,,,,,,,,,,,,,,,,,,,,,,,,,,,,,,,,,,,,,,,,,,sub137,motor,4,0,2024-12-13_09h15.15.184,ASRT_motor,2023.2.3,143.56285683068376,2024-12-13 09h15.37.925177 +0800,
,1,90,2,2,red,sequences/sub137_practice_sequence_00.csv,,,,,,,,,,,0,0,0,0,0,7,7,57,,,,,,,,,,,,,,,,,,,,,305.9197217000183,,,,,,,,,,,,,305.91503550001653,305.9197217000183,305.9197217000183,306.1207520000171,306.55529250000836,4,0,0.6312789999938104,None,306.55613800001447,306.5663027999981,306.5663027999981,306.7671893000079,306.9751890000189,306.9695575000078,306.9695953000046,306.9751890000189,307.67054660001304,,,,,,,,,,,,,,,,,,,,,,,,,,,,,,,,,,,,,,,,,,,,,,,,,,,,,,,,,,,,,,,sub137,motor,4,0,2024-12-13_09h15.15.184,ASRT_motor,2023.2.3,143.56285683068376,2024-12-13 09h15.37.925177 +0800,
,3,270,0,4,red,sequences/sub137_practice_sequence_00.csv,,,,,,,,,,,0,0,0,0,0,8,8,67,,,,,,,,,,,,,,,,,,,,,307.67850599999656,,,,,,,,,,,,,307.67129580001347,307.67850599999656,307.67850599999656,307.8778546000249,308.4652466000116,4,1,0.7785456999845337,None,308.4660419000138,308.4770846000174,308.4770846000174,308.67673140001716,308.8858429999964,308.8804017000075,308.8804534000228,308.8858429999964,309.58046070000273,309.5861170999997,,,,,,,,,,,,,,,,,,,,,,,,,,,,,,,,,,,,,,,,,,,,,,,,,,,,,,,,,,,,,,sub137,motor,4,0,2024-12-13_09h15.15.184,ASRT_motor,2023.2.3,143.56285683068376,2024-12-13 09h15.37.925177 +0800,
,3,270,0,4,red,sequences/sub137_practice_sequence_00.csv,,,,,,,,,,,0,0,0,0,0,9,9,31,,,,,,,,,,,,,,,,,,,,,309.5861170999997,,,,,,,,,,,,,309.58104050002294,309.5861170999997,309.5861170999997,309.7881829000253,310.2914488000097,4,1,0.7002977000083774,None,310.2922421999974,310.2996061000158,310.2996061000158,310.50284170001396,310.7120567000238,310.70587200002046,310.70591320001404,310.7120567000238,311.4063567999983,,,,,,,,,,,,,,,,,,,,,,,,,,,,,,,,,,,,,,,,,,,,,,,,,,,,,,,,,,,,,,,sub137,motor,4,0,2024-12-13_09h15.15.184,ASRT_motor,2023.2.3,143.56285683068376,2024-12-13 09h15.37.925177 +0800,
,1,90,2,2,red,sequences/sub137_practice_sequence_00.csv,,,,,,,,,,,0,0,0,0,0,10,10,11,,,,,,,,,,,,,,,,,,,,,311.41422590002185,,,,,,,,,,,,,311.40717170000426,311.41422590002185,311.41422590002185,311.6143299000105,311.937276200013,2,1,0.5202063999895472,None,311.938040500012,311.9442675000173,311.9442675000173,312.1484380000038,312.3586632000224,312.35179470002186,312.35184470002423,312.3586632000224,313.052849700005,313.0583968000137,,,,,,,,,,,,,,,,,,,,,,,,,,,,,,,,,,,,,,,,,,,,,,,,,,,,,,,,,,,,,,sub137,motor,4,0,2024-12-13_09h15.15.184,ASRT_motor,2023.2.3,143.56285683068376,2024-12-13 09h15.37.925177 +0800,
,2,180,3,1,red,sequences/sub137_practice_sequence_00.csv,,,,,,,,,,,0,0,0,0,0,11,11,80,,,,,,,,,,,,,,,,,,,,,313.0583968000137,,,,,,,,,,,,,313.05344470002456,313.0583968000137,313.0583968000137,313.2606854000187,313.7407741000061,1,1,0.6750932999711949,None,313.741337000014,313.7478122000175,313.7478122000175,313.9544569000136,314.1631081000087,314.1575450000237,314.15758769999957,314.1631081000087,314.85880880002514,314.86640940001234,,,,,,,,,,,,,,,,,,,,,,,,,,,,,,,,,,,,,,,,,,,,,,,,,,,,,,,,,,,,,,sub137,motor,4,0,2024-12-13_09h15.15.184,ASRT_motor,2023.2.3,143.56285683068376,2024-12-13 09h15.37.925177 +0800,
,3,270,0,4,red,sequences/sub137_practice_sequence_00.csv,,,,,,,,,,,0,0,0,0,0,12,12,25,,,,,,,,,,,,,,,,,,,,,314.86640940001234,,,,,,,,,,,,,314.8594211000018,314.86640940001234,314.86640940001234,315.0730967000127,315.3873886000074,4,1,0.5131833000050392,None,315.38818609999726,315.39603980001993,315.39603980001993,315.6001675000007,315.8094771000033,315.80316320000566,315.8032080999983,315.8094771000033,316.5041237999976,,,,,,,,,,,,,,,,,,,,,,,,,,,,,,,,,,,,,,,,,,,,,,,,,,,,,,,,,,,,,,,sub137,motor,4,0,2024-12-13_09h15.15.184,ASRT_motor,2023.2.3,143.56285683068376,2024-12-13 09h15.37.925177 +0800,
,0,0,1,3,red,sequences/sub137_practice_sequence_00.csv,,,,,,,,,,,0,0,0,0,0,13,13,28,,,,,,,,,,,,,,,,,,,,,316.51662800001213,,,,,,,,,,,,,316.5050143999979,316.51662800001213,316.51662800001213,316.7183978999965,317.1447969000146,3,1,0.6235503000207245,None,317.1454974000226,317.1507606000232,317.1507606000232,317.35680930002127,317.5719911000051,317.5599712000112,317.56001139999717,317.5719911000051,318.2601206000254,,,,,,,,,,,,,,,,,,,,,,,,,,,,,,,,,,,,,,,,,,,,,,,,,,,,,,,,,,,,,,,sub137,motor,4,0,2024-12-13_09h15.15.184,ASRT_motor,2023.2.3,143.56285683068376,2024-12-13 09h15.37.925177 +0800,
,3,270,0,4,red,sequences/sub137_practice_sequence_00.csv,,,,,,,,,,,0,0,0,0,0,14,14,60,,,,,,,,,,,,,,,,,,,,,318.2674790000019,,,,,,,,,,,,,318.2606461000105,318.2674790000019,318.2674790000019,318.4685192000179,318.9601605000207,4,1,0.6885697999969125,None,318.9609424000082,318.96851490001427,318.96851490001427,319.1694741000247,319.3780136000132,319.37271090000286,319.37276210001437,319.3780136000132,320.0733203999989,320.0796712000156,,,,,,,,,,,,,,,,,,,,,,,,,,,,,,,,,,,,,,,,,,,,,,,,,,,,,,,,,,,,,,sub137,motor,4,0,2024-12-13_09h15.15.184,ASRT_motor,2023.2.3,143.56285683068376,2024-12-13 09h15.37.925177 +0800,
,3,270,0,4,red,sequences/sub137_practice_sequence_00.csv,,,,,,,,,,,0,0,0,0,0,15,15,9,,,,,,,,,,,,,,,,,,,,,320.0796712000156,,,,,,,,,,,,,320.073928400001,320.0796712000156,320.0796712000156,320.280394100002,320.6454609000066,4,1,0.5622740000253543,None,320.64622500000405,320.654334699997,320.654334699997,320.85725120001007,321.0654790000117,321.0599157999968,321.0599645000184,321.0654790000117,321.7600609000074,,,,,,,,,,,,,,,,,,,,,,,,,,,,,,,,,,,,,,,,,,,,,,,,,,,,,,,,,,,,,,,sub137,motor,4,0,2024-12-13_09h15.15.184,ASRT_motor,2023.2.3,143.56285683068376,2024-12-13 09h15.37.925177 +0800,
,1,90,2,2,red,sequences/sub137_practice_sequence_00.csv,,,,,,,,,,,0,0,0,0,0,16,16,41,,,,,,,,,,,,,,,,,,,,,321.7668151000107,,,,,,,,,,,,,321.7607390000194,321.7668151000107,321.7668151000107,321.9682657000085,322.5142939000216,2,1,0.7413903999840841,None,322.5150152000133,322.5212102000078,322.5212102000078,322.7254446000152,322.93338640002185,322.9277750000183,322.927826500003,322.93338640002185,323.6285609000188,323.6344536000106,,,,,,,,,,,,,,,,,,,,,,,,,,,,,,,,,,,,,,,,,,,,,,,,,,,,,,,,,,,,,,sub137,motor,4,0,2024-12-13_09h15.15.184,ASRT_motor,2023.2.3,143.56285683068376,2024-12-13 09h15.37.925177 +0800,
,0,0,1,3,red,sequences/sub137_practice_sequence_00.csv,,,,,,,,,,,0,0,0,0,0,17,17,58,,,,,,,,,,,,,,,,,,,,,323.6344536000106,,,,,,,,,,,,,323.6291870000132,323.6344536000106,323.6344536000106,323.83672780002235,324.17080560000613,3,1,0.5310520000057295,None,324.1712246000243,324.1759701000119,324.1759701000119,324.3847300000198,324.59334650001256,324.58703640001477,324.58707450001384,324.59334650001256,325.2883311000187,,,,,,,,,,,,,,,,,,,,,,,,,,,,,,,,,,,,,,,,,,,,,,,,,,,,,,,,,,,,,,,sub137,motor,4,0,2024-12-13_09h15.15.184,ASRT_motor,2023.2.3,143.56285683068376,2024-12-13 09h15.37.925177 +0800,
,1,90,2,2,red,sequences/sub137_practice_sequence_00.csv,,,,,,,,,,,0,0,0,0,0,18,18,8,,,,,,,,,,,,,,,,,,,,,325.29500949999783,,,,,,,,,,,,,325.28904220002005,325.29500949999783,325.29500949999783,325.4959129000199,326.03266480000457,2,1,0.73412089998601,None,326.0336645000207,326.0401603000064,326.0401603000064,326.24553919999744,326.45402580001974,326.4481300000043,326.4481647000066,326.45402580001974,327.14905730000464,,,,,,,,,,,,,,,,,,,,,,,,,,,,,,,,,,,,,,,,,,,,,,,,,,,,,,,,,,,,,,,sub137,motor,4,0,2024-12-13_09h15.15.184,ASRT_motor,2023.2.3,143.56285683068376,2024-12-13 09h15.37.925177 +0800,
,1,90,2,2,red,sequences/sub137_practice_sequence_00.csv,,,,,,,,,,,0,0,0,0,0,19,19,43,,,,,,,,,,,,,,,,,,,,,327.15636710001854,,,,,,,,,,,,,327.14973260002444,327.15636710001854,327.15636710001854,327.35677179999766,327.73669849999715,2,1,0.575431600009324,None,327.73739860000205,327.7430465000216,327.7430465000216,327.9469644000055,328.15529210001114,328.15040370001225,328.1504445000028,328.15529210001114,328.8504307999974,328.85651080001844,,,,,,,,,,,,,,,,,,,,,,,,,,,,,,,,,,,,,,,,,,,,,,,,,,,,,,,,,,,,,,sub137,motor,4,0,2024-12-13_09h15.15.184,ASRT_motor,2023.2.3,143.56285683068376,2024-12-13 09h15.37.925177 +0800,
,3,270,0,4,red,sequences/sub137_practice_sequence_00.csv,,,,,,,,,,,0,0,0,0,0,20,20,59,,,,,,,,,,,,,,,,,,,,,328.85651080001844,,,,,,,,,,,,,328.85089930001413,328.85651080001844,328.85651080001844,329.05850070001907,329.484993799997,4,1,0.6197064999723807,None,329.48555490002036,329.49047740001697,329.49047740001697,329.69693430000916,329.9058490000025,329.89968729999964,329.89972890002537,329.9058490000025,330.60042610001983,,,,,,,,,,,,,,,,,,,,,,,,,,,,,,,,,,,,,,,,,,,,,,,,,,,,,,,,,,,,,,,sub137,motor,4,0,2024-12-13_09h15.15.184,ASRT_motor,2023.2.3,143.56285683068376,2024-12-13 09h15.37.925177 +0800,
,1,90,2,2,red,sequences/sub137_practice_sequence_00.csv,,,,,,,,,,,0,0,0,0,0,21,21,53,,,,,,,,,,,,,,,,,,,,,330.60909780001384,,,,,,,,,,,,,330.60134400002426,330.60909780001384,330.60909780001384,330.8084862000251,331.0305890000018,2,1,0.4092790000140667,None,331.03122299999814,331.0375630000199,331.0375630000199,331.2386935999966,331.4469373000029,331.440373200021,331.4403977000038,331.4469373000029,332.142216200009,,,,,,,,,,,,,,,,,,,,,,,,,,,,,,,,,,,,,,,,,,,,,,,,,,,,,,,,,,,,,,,sub137,motor,4,0,2024-12-13_09h15.15.184,ASRT_motor,2023.2.3,143.56285683068376,2024-12-13 09h15.37.925177 +0800,
,0,0,1,3,red,sequences/sub137_practice_sequence_00.csv,,,,,,,,,,,0,0,0,0,0,22,22,78,,,,,,,,,,,,,,,,,,,,,332.1481211000064,,,,,,,,,,,,,332.14282020000974,332.1481211000064,332.1481211000064,332.3497533000191,332.7086292000022,2,0,0.5553555999940727,None,332.7094502999971,332.728880700015,332.728880700015,332.9191531999968,333.12862080000923,333.1226435000135,333.12269670001115,333.12862080000923,333.8237163000158,333.8295130000042,,,,,,,,,,,,,,,,,,,,,,,,,,,,,,,,,,,,,,,,,,,,,,,,,,,,,,,,,,,,,,sub137,motor,4,0,2024-12-13_09h15.15.184,ASRT_motor,2023.2.3,143.56285683068376,2024-12-13 09h15.37.925177 +0800,
,0,0,1,3,red,sequences/sub137_practice_sequence_00.csv,,,,,,,,,,,0,0,0,0,0,23,23,2,,,,,,,,,,,,,,,,,,,,,333.8295130000042,,,,,,,,,,,,,333.8243932000187,333.8295130000042,333.8295130000042,334.0309669999988,334.4423993000237,3,1,0.6087732000160031,None,334.44308530000853,334.4530513000209,334.4530513000209,334.6557802000025,334.86366329999873,334.85828750001383,334.85832960001426,334.86366329999873,335.5591304000118,335.56691500000306,,,,,,,,,,,,,,,,,,,,,,,,,,,,,,,,,,,,,,,,,,,,,,,,,,,,,,,,,,,,,,sub137,motor,4,0,2024-12-13_09h15.15.184,ASRT_motor,2023.2.3,143.56285683068376,2024-12-13 09h15.37.925177 +0800,
,2,180,3,1,red,sequences/sub137_practice_sequence_00.csv,,,,,,,,,,,0,0,0,0,0,24,24,44,,,,,,,,,,,,,,,,,,,,,335.56691500000306,,,,,,,,,,,,,335.5598738999979,335.56691500000306,335.56691500000306,335.76637779999874,336.4499515000207,1,1,0.8772817999997642,None,336.450986300013,336.45810070002335,336.45810070002335,336.6626221000042,336.8706749000121,336.8651428000012,336.8651888000022,336.8706749000121,337.5657925000123,,,,,,,,,,,,,,,,,,,,,,,,,,,,,,,,,,,,,,,,,,,,,,,,,,,,,,,,,,,,,,,sub137,motor,4,0,2024-12-13_09h15.15.184,ASRT_motor,2023.2.3,143.56285683068376,2024-12-13 09h15.37.925177 +0800,
,2,180,3,1,red,sequences/sub137_practice_sequence_00.csv,,,,,,,,,,,0,0,0,0,0,25,25,75,,,,,,,,,,,,,,,,,,,,,337.5742933000147,,,,,,,,,,,,,337.56672309999703,337.5742933000147,337.5742933000147,337.7734421000059,338.3885467000073,1,1,0.8091894000244793,None,338.3895057000045,338.3989795000234,338.3989795000234,338.59955310000805,338.80807490000734,338.8022146000003,338.8022560000245,338.80807490000734,339.50329010002315,,,,,,,,,,,,,,,,,,,,,,,,,,,,,,,,,,,,,,,,,,,,,,,,,,,,,,,,,,,,,,,sub137,motor,4,0,2024-12-13_09h15.15.184,ASRT_motor,2023.2.3,143.56285683068376,2024-12-13 09h15.37.925177 +0800,
,2,180,3,1,red,sequences/sub137_practice_sequence_00.csv,,,,,,,,,,,0,0,0,0,0,26,26,3,,,,,,,,,,,,,,,,,,,,,339.51103710001917,,,,,,,,,,,,,339.50399590001325,339.51103710001917,339.51103710001917,339.71135860000504,339.9770497000136,1,1,0.46044789999723434,None,339.9778447000135,339.9848863000225,339.9848863000225,340.19021680002334,340.4001184000226,340.3932738000003,340.39333320001606,340.4001184000226,341.09423370001605,341.10175739999977,,,,,,,,,,,,,,,,,,,,,,,,,,,,,,,,,,,,,,,,,,,,,,,,,,,,,,,,,,,,,,sub137,motor,4,0,2024-12-13_09h15.15.184,ASRT_motor,2023.2.3,143.56285683068376,2024-12-13 09h15.37.925177 +0800,
,1,90,2,2,red,sequences/sub137_practice_sequence_00.csv,,,,,,,,,,,0,0,0,0,0,27,27,46,,,,,,,,,,,,,,,,,,,,,341.10175739999977,,,,,,,,,,,,,341.09507530002156,341.10175739999977,341.10175739999977,341.30184320002445,341.69208610002534,2,1,0.5854726000106893,None,341.6927467000205,341.6988206000242,341.6988206000242,341.9047776000225,342.1135674000252,342.10746440000366,342.107505699998,342.1135674000252,342.80813460002537,,,,,,,,,,,,,,,,,,,,,,,,,,,,,,,,,,,,,,,,,,,,,,,,,,,,,,,,,,,,,,,sub137,motor,4,0,2024-12-13_09h15.15.184,ASRT_motor,2023.2.3,143.56285683068376,2024-12-13 09h15.37.925177 +0800,
,3,270,0,4,red,sequences/sub137_practice_sequence_00.csv,,,,,,,,,,,0,0,0,0,0,28,28,29,,,,,,,,,,,,,,,,,,,,,342.8157846000104,,,,,,,,,,,,,342.80891000002157,342.8157846000104,342.8157846000104,343.01634020000347,343.41391100001056,4,1,0.5917745000042487,None,343.4144137999974,343.419045800023,343.419045800023,343.6274078999995,343.8355238000222,343.82992850002483,343.8299661000201,343.8355238000222,344.530055500014,,,,,,,,,,,,,,,,,,,,,,,,,,,,,,,,,,,,,,,,,,,,,,,,,,,,,,,,,,,,,,,sub137,motor,4,0,2024-12-13_09h15.15.184,ASRT_motor,2023.2.3,143.56285683068376,2024-12-13 09h15.37.925177 +0800,
,3,270,0,4,red,sequences/sub137_practice_sequence_00.csv,,,,,,,,,,,0,0,0,0,0,29,29,16,,,,,,,,,,,,,,,,,,,,,344.5370167000219,,,,,,,,,,,,,344.53073730002507,344.5370167000219,344.5370167000219,344.7389327000128,345.15990230001626,4,1,0.6190697000129148,None,345.1606046000088,345.1687035000068,345.1687035000068,345.36997020000126,345.57859960000496,345.57339410000714,345.57343000001856,345.57859960000496,346.27370280001196,,,,,,,,,,,,,,,,,,,,,,,,,,,,,,,,,,,,,,,,,,,,,,,,,,,,,,,,,,,,,,,sub137,motor,4,0,2024-12-13_09h15.15.184,ASRT_motor,2023.2.3,143.56285683068376,2024-12-13 09h15.37.925177 +0800,
,1,90,2,2,red,sequences/sub137_practice_sequence_00.csv,,,,,,,,,,,0,0,0,0,0,30,30,77,,,,,,,,,,,,,,,,,,,,,346.2796503000136,,,,,,,,,,,,,346.2743037000182,346.2796503000136,346.2796503000136,346.48128390000784,346.79624670001795,2,1,0.5118909000011627,None,346.7968516999972,346.8031326000055,346.8031326000055,347.00917840001057,347.21785730001284,347.211998600018,347.2120441000152,347.21785730001284,347.9125755999994,,,,,,,,,,,,,,,,,,,,,,,,,,,,,,,,,,,,,,,,,,,,,,,,,,,,,,,,,,,,,,,sub137,motor,4,0,2024-12-13_09h15.15.184,ASRT_motor,2023.2.3,143.56285683068376,2024-12-13 09h15.37.925177 +0800,
,2,180,3,1,red,sequences/sub137_practice_sequence_00.csv,,,,,,,,,,,0,0,0,0,0,31,31,35,,,,,,,,,,,,,,,,,,,,,347.9196973000071,,,,,,,,,,,,,347.9132897000236,347.9196973000071,347.9196973000071,348.1202591000183,348.3898173000198,2,0,0.459630900004413,None,348.39145429999917,348.40902780002216,348.40902780002216,348.59918310001376,348.80762289999984,348.8013465999975,348.80137490000925,348.80762289999984,349.5021248999983,,,,,,,,,,,,,,,,,,,,,,,,,,,,,,,,,,,,,,,,,,,,,,,,,,,,,,,,,,,,,,,sub137,motor,4,0,2024-12-13_09h15.15.184,ASRT_motor,2023.2.3,143.56285683068376,2024-12-13 09h15.37.925177 +0800,
,2,180,3,1,red,sequences/sub137_practice_sequence_00.csv,,,,,,,,,,,0,0,0,0,0,32,32,71,,,,,,,,,,,,,,,,,,,,,349.50868840000476,,,,,,,,,,,,,349.502604600013,349.50868840000476,349.50868840000476,349.7104945000028,350.0412055000197,1,1,0.5276488999952562,None,350.0420924000209,350.0507373000146,350.0507373000146,350.25245930001256,350.4603530000022,350.45559130000765,350.4556986000098,350.4603530000022,351.1560326000035,351.1626194000128,,,,,,,,,,,,,,,,,,,,,,,,,,,,,,,,,,,,,,,,,,,,,,,,,,,,,,,,,,,,,,sub137,motor,4,0,2024-12-13_09h15.15.184,ASRT_motor,2023.2.3,143.56285683068376,2024-12-13 09h15.37.925177 +0800,
,0,0,1,3,red,sequences/sub137_practice_sequence_00.csv,,,,,,,,,,,0,0,0,0,0,33,33,21,,,,,,,,,,,,,,,,,,,,,351.1626194000128,,,,,,,,,,,,,351.15666540001985,351.1626194000128,351.1626194000128,351.36369410000043,351.7059575000021,3,1,0.5377360000275075,None,351.70675770001253,351.7162991000223,351.7162991000223,351.9194634000014,352.12675039999885,352.12112470000284,352.1211642000126,352.12675039999885,352.82231489999685,,,,,,,,,,,,,,,,,,,,,,,,,,,,,,,,,,,,,,,,,,,,,,,,,,,,,,,,,,,,,,,sub137,motor,4,0,2024-12-13_09h15.15.184,ASRT_motor,2023.2.3,143.56285683068376,2024-12-13 09h15.37.925177 +0800,
,2,180,3,1,red,sequences/sub137_practice_sequence_00.csv,,,,,,,,,,,0,0,0,0,0,34,34,23,,,,,,,,,,,,,,,,,,,,,352.83229450002545,,,,,,,,,,,,,352.8234050000028,352.83229450002545,352.83229450002545,353.03665130000445,353.33915080002043,1,1,0.497966599999927,None,353.33967880002456,353.34459750002134,353.34459750002134,353.5505839000107,353.75936110000475,353.75342570000794,353.75347220001277,353.75936110000475,354.45415460001095,,,,,,,,,,,,,,,,,,,,,,,,,,,,,,,,,,,,,,,,,,,,,,,,,,,,,,,,,,,,,,,sub137,motor,4,0,2024-12-13_09h15.15.184,ASRT_motor,2023.2.3,143.56285683068376,2024-12-13 09h15.37.925177 +0800,
,3,270,0,4,red,sequences/sub137_practice_sequence_00.csv,,,,,,,,,,,0,0,0,0,0,35,35,70,,,,,,,,,,,,,,,,,,,,,354.4611336000089,,,,,,,,,,,,,354.4550160000217,354.4611336000089,354.4611336000089,354.66175330002443,355.0326766000071,4,1,0.5691413000167813,None,355.03349610001897,355.0400513000204,355.0400513000204,355.24517070001457,355.45457480000914,355.4474630000186,355.44750380000914,355.45457480000914,356.14826450002147,,,,,,,,,,,,,,,,,,,,,,,,,,,,,,,,,,,,,,,,,,,,,,,,,,,,,,,,,,,,,,,sub137,motor,4,0,2024-12-13_09h15.15.184,ASRT_motor,2023.2.3,143.56285683068376,2024-12-13 09h15.37.925177 +0800,
,2,180,3,1,red,sequences/sub137_practice_sequence_00.csv,,,,,,,,,,,0,0,0,0,0,36,36,72,,,,,,,,,,,,,,,,,,,,,356.1544829000195,,,,,,,,,,,,,356.1488954000233,356.1544829000195,356.1544829000195,356.35650270001497,356.99184380000224,1,1,0.8331310999928974,None,356.99258370001917,356.99921650000033,356.99921650000033,357.2030380000069,357.4115166999982,357.4062038999982,357.40624959999695,357.4115166999982,358.10712709999643,,,,,,,,,,,,,,,,,,,,,,,,,,,,,,,,,,,,,,,,,,,,,,,,,,,,,,,,,,,,,,,sub137,motor,4,0,2024-12-13_09h15.15.184,ASRT_motor,2023.2.3,143.56285683068376,2024-12-13 09h15.37.925177 +0800,
,3,270,0,4,red,sequences/sub137_practice_sequence_00.csv,,,,,,,,,,,0,0,0,0,0,37,37,30,,,,,,,,,,,,,,,,,,,,,358.1141516000207,,,,,,,,,,,,,358.107871300017,358.1141516000207,358.1141516000207,358.3148831000144,358.6917767999985,4,1,0.5740724999923259,None,358.6923508000036,358.6975301000057,358.6975301000057,358.90450970001984,359.1131009000237,359.1077021000092,359.1077462999965,359.1131009000237,359.8087171000079,359.8157978000236,,,,,,,,,,,,,,,,,,,,,,,,,,,,,,,,,,,,,,,,,,,,,,,,,,,,,,,,,,,,,,sub137,motor,4,0,2024-12-13_09h15.15.184,ASRT_motor,2023.2.3,143.56285683068376,2024-12-13 09h15.37.925177 +0800,
,1,90,2,2,red,sequences/sub137_practice_sequence_00.csv,,,,,,,,,,,0,0,0,0,0,38,38,6,,,,,,,,,,,,,,,,,,,,,359.8157978000236,,,,,,,,,,,,,359.80937110001105,359.8157978000236,359.8157978000236,360.01615810001385,360.5529489000037,2,1,0.7326133000024129,None,360.5537631000043,360.5624948000186,360.5624948000186,360.76559540000744,360.97402449999936,360.96840140002314,360.96843840001384,360.97402449999936,361.66953880002256,,,,,,,,,,,,,,,,,,,,,,,,,,,,,,,,,,,,,,,,,,,,,,,,,,,,,,,,,,,,,,,sub137,motor,4,0,2024-12-13_09h15.15.184,ASRT_motor,2023.2.3,143.56285683068376,2024-12-13 09h15.37.925177 +0800,
,2,180,3,1,red,sequences/sub137_practice_sequence_00.csv,,,,,,,,,,,0,0,0,0,0,39,39,15,,,,,,,,,,,,,,,,,,,,,361.67738390000886,,,,,,,,,,,,,361.67031139999744,361.67738390000886,361.67738390000886,361.8768119000015,362.20198390001315,1,1,0.520560300006764,None,362.20351479999954,362.2124676000094,362.2124676000094,362.4116009999998,362.6204193000158,362.6148005000141,362.6148414000054,362.6204193000158,363.3159649000154,363.3222819000075,,,,,,,,,,,,,,,,,,,,,,,,,,,,,,,,,,,,,,,,,,,,,,,,,,,,,,,,,,,,,,sub137,motor,4,0,2024-12-13_09h15.15.184,ASRT_motor,2023.2.3,143.56285683068376,2024-12-13 09h15.37.925177 +0800,
,0,0,1,3,red,sequences/sub137_practice_sequence_00.csv,,,,,,,,,,,0,0,0,0,0,40,40,36,,,,,,,,,,,,,,,,,,,,,363.3222819000075,,,,,,,,,,,,,363.31660610000836,363.3222819000075,363.3222819000075,363.52323760002037,363.9030491000158,3,1,0.5761085000121966,None,363.9040376000048,363.9125125000137,363.9125125000137,364.11314190001576,364.3210309999995,364.31602710002335,364.3160722000175,364.3210309999995,365.0163839000161,,,,,,,,,,,,,,,,,,,,,,,,,,,,,,,,,,,,,,,,,,,,,,,,,,,,,,,,,,,,,,,sub137,motor,4,0,2024-12-13_09h15.15.184,ASRT_motor,2023.2.3,143.56285683068376,2024-12-13 09h15.37.925177 +0800,
,2,180,3,1,red,sequences/sub137_practice_sequence_00.csv,,,,,,,,,,,0,0,0,0,0,41,41,54,,,,,,,,,,,,,,,,,,,,,365.0238753000158,,,,,,,,,,,,,365.01697280001827,365.0238753000158,365.0238753000158,365.22430760000134,365.46406120000756,1,1,0.43680359999416396,None,365.4647767000133,365.470658700011,365.470658700011,365.67584239999996,365.8836847000057,365.87789790000534,365.87796690000687,365.8836847000057,366.57823480002116,,,,,,,,,,,,,,,,,,,,,,,,,,,,,,,,,,,,,,,,,,,,,,,,,,,,,,,,,,,,,,,sub137,motor,4,0,2024-12-13_09h15.15.184,ASRT_motor,2023.2.3,143.56285683068376,2024-12-13 09h15.37.925177 +0800,
,0,0,1,3,red,sequences/sub137_practice_sequence_00.csv,,,,,,,,,,,0,0,0,0,0,42,42,20,,,,,,,,,,,,,,,,,,,,,366.5850597000099,,,,,,,,,,,,,366.57875000001513,366.5850597000099,366.5850597000099,366.78729860001476,367.08248290000483,3,1,0.4941533000092022,None,367.08336020002025,367.0904557000031,367.0904557000031,367.2933587000007,367.5022158000211,367.49647090001963,367.49652050001896,367.5022158000211,368.19684040002176,,,,,,,,,,,,,,,,,,,,,,,,,,,,,,,,,,,,,,,,,,,,,,,,,,,,,,,,,,,,,,,sub137,motor,4,0,2024-12-13_09h15.15.184,ASRT_motor,2023.2.3,143.56285683068376,2024-12-13 09h15.37.925177 +0800,
,1,90,2,2,red,sequences/sub137_practice_sequence_00.csv,,,,,,,,,,,0,0,0,0,0,43,43,45,,,,,,,,,,,,,,,,,,,,,368.20420930002,,,,,,,,,,,,,368.19747090002056,368.20420930002,368.20420930002,368.4048819000018,368.8376449000207,1,0,0.6281278999813367,None,368.83830520001356,368.8461932000064,368.8461932000064,369.05040310000186,369.25944930000696,369.2541450000135,369.254190800013,369.25944930000696,369.95412410001154,369.95973610001965,,,,,,,,,,,,,,,,,,,,,,,,,,,,,,,,,,,,,,,,,,,,,,,,,,,,,,,,,,,,,,sub137,motor,4,0,2024-12-13_09h15.15.184,ASRT_motor,2023.2.3,143.56285683068376,2024-12-13 09h15.37.925177 +0800,
,2,180,3,1,red,sequences/sub137_practice_sequence_00.csv,,,,,,,,,,,0,0,0,0,0,44,44,26,,,,,,,,,,,,,,,,,,,,,369.95973610001965,,,,,,,,,,,,,369.9546326000127,369.95973610001965,369.95973610001965,370.1613048000145,370.4772535000229,1,1,0.514570300001651,None,370.4779764999985,370.48690320001333,370.48690320001333,370.6898456000199,370.89739810000174,370.8913999000215,370.8914323000063,370.89739810000174,371.59239960002014,,,,,,,,,,,,,,,,,,,,,,,,,,,,,,,,,,,,,,,,,,,,,,,,,,,,,,,,,,,,,,,sub137,motor,4,0,2024-12-13_09h15.15.184,ASRT_motor,2023.2.3,143.56285683068376,2024-12-13 09h15.37.925177 +0800,
,2,180,3,1,red,sequences/sub137_practice_sequence_00.csv,,,,,,,,,,,0,0,0,0,0,45,45,76,,,,,,,,,,,,,,,,,,,,,371.60089670002344,,,,,,,,,,,,,371.59387870001956,371.60089670002344,371.60089670002344,371.80007009999827,372.1705077000079,1,1,0.564057400013553,None,372.1717612000066,372.1801039999991,372.1801039999991,372.3837344000058,372.5925166000088,372.58677380002337,372.5868247000035,372.5925166000088,373.28721140002017,,,,,,,,,,,,,,,,,,,,,,,,,,,,,,,,,,,,,,,,,,,,,,,,,,,,,,,,,,,,,,,sub137,motor,4,0,2024-12-13_09h15.15.184,ASRT_motor,2023.2.3,143.56285683068376,2024-12-13 09h15.37.925177 +0800,
,3,270,0,4,red,sequences/sub137_practice_sequence_00.csv,,,,,,,,,,,0,0,0,0,0,46,46,51,,,,,,,,,,,,,,,,,,,,,373.29331249999814,,,,,,,,,,,,,373.2878304000187,373.29331249999814,373.29331249999814,373.4946666000178,373.86749790000613,4,1,0.5652126999921165,None,373.868128800008,373.87631469999906,373.87631469999906,374.07794889999786,374.28730100000394,374.2815649000113,374.2816075000155,374.28730100000394,374.981866200018,374.98750960000325,,,,,,,,,,,,,,,,,,,,,,,,,,,,,,,,,,,,,,,,,,,,,,,,,,,,,,,,,,,,,,sub137,motor,4,0,2024-12-13_09h15.15.184,ASRT_motor,2023.2.3,143.56285683068376,2024-12-13 09h15.37.925177 +0800,
,0,0,1,3,red,sequences/sub137_practice_sequence_00.csv,,,,,,,,,,,0,0,0,0,0,47,47,49,,,,,,,,,,,,,,,,,,,,,374.98750960000325,,,,,,,,,,,,,374.98247480002465,374.98750960000325,374.98750960000325,375.18921989999944,375.58117859999766,3,1,0.5860974999959581,None,375.5818290000025,375.58849049999844,375.58849049999844,375.79311970001436,376.0016833000118,375.9960541000182,375.9960911000089,376.0016833000118,376.6969797000056,,,,,,,,,,,,,,,,,,,,,,,,,,,,,,,,,,,,,,,,,,,,,,,,,,,,,,,,,,,,,,,sub137,motor,4,0,2024-12-13_09h15.15.184,ASRT_motor,2023.2.3,143.56285683068376,2024-12-13 09h15.37.925177 +0800,
,2,180,3,1,red,sequences/sub137_practice_sequence_00.csv,,,,,,,,,,,0,0,0,0,0,48,48,7,,,,,,,,,,,,,,,,,,,,,376.70396830001846,,,,,,,,,,,,,376.6977179000096,376.70396830001846,376.70396830001846,376.90446800002246,377.2252119000186,1,1,0.516680600005202,None,377.22547050000867,377.2311295000254,377.2311295000254,377.4391577000206,377.6482892000058,377.6417473000183,377.64178580002044,377.6482892000058,378.34192710000207,,,,,,,,,,,,,,,,,,,,,,,,,,,,,,,,,,,,,,,,,,,,,,,,,,,,,,,,,,,,,,,sub137,motor,4,0,2024-12-13_09h15.15.184,ASRT_motor,2023.2.3,143.56285683068376,2024-12-13 09h15.37.925177 +0800,
,3,270,0,4,red,sequences/sub137_practice_sequence_00.csv,,,,,,,,,,,0,0,0,0,0,49,49,68,,,,,,,,,,,,,,,,,,,,,378.35005220002495,,,,,,,,,,,,,378.34261120000156,378.35005220002495,378.35005220002495,378.55020030000014,378.88609330001054,4,1,0.5281271999992896,None,378.88664410001365,378.8930400000245,378.8930400000245,379.0989838000096,379.30740710001555,379.30109570000786,379.3011665000231,379.30740710001555,380.0019016000151,,,,,,,,,,,,,,,,,,,,,,,,,,,,,,,,,,,,,,,,,,,,,,,,,,,,,,,,,,,,,,,sub137,motor,4,0,2024-12-13_09h15.15.184,ASRT_motor,2023.2.3,143.56285683068376,2024-12-13 09h15.37.925177 +0800,
,3,270,0,4,red,sequences/sub137_practice_sequence_00.csv,,,,,,,,,,,0,0,0,0,0,50,50,83,,,,,,,,,,,,,,,,,,,,,380.0088792000024,,,,,,,,,,,,,380.00246710001375,380.0088792000024,380.0088792000024,380.2097422000079,380.5108988000138,4,1,0.49591600001440383,None,380.5115227000206,380.5183201000036,380.5183201000036,380.7239359000232,380.93336470000213,380.92724340001587,380.92730810001376,380.93336470000213,381.6268546000065,381.63290009999764,,,,,,,,,,,,,,,,,,,,,,,,,,,,,,,,,,,,,,,,,,,,,,,,,,,,,,,,,,,,,,sub137,motor,4,0,2024-12-13_09h15.15.184,ASRT_motor,2023.2.3,143.56285683068376,2024-12-13 09h15.37.925177 +0800,
,0,0,1,3,red,sequences/sub137_practice_sequence_00.csv,,,,,,,,,,,0,0,0,0,0,51,51,63,,,,,,,,,,,,,,,,,,,,,381.63290009999764,,,,,,,,,,,,,381.6271788000013,381.63290009999764,381.63290009999764,381.8349820000003,382.1818808000244,3,1,0.5435604999947827,None,382.1821484999964,382.1884144000069,382.1884144000069,382.39712150002015,382.60530490000383,382.5999299999967,382.5999873999972,382.60530490000383,383.30027530001826,,,,,,,,,,,,,,,,,,,,,,,,,,,,,,,,,,,,,,,,,,,,,,,,,,,,,,,,,,,,,,,sub137,motor,4,0,2024-12-13_09h15.15.184,ASRT_motor,2023.2.3,143.56285683068376,2024-12-13 09h15.37.925177 +0800,
,3,270,0,4,red,sequences/sub137_practice_sequence_00.csv,,,,,,,,,,,0,0,0,0,0,52,52,79,,,,,,,,,,,,,,,,,,,,,383.3072872000048,,,,,,,,,,,,,383.3008663000073,383.3072872000048,383.3072872000048,383.5083360999997,383.8648276000167,4,1,0.5509748999902513,None,383.86549480000394,383.8725349000015,383.8725349000015,384.07748940002057,384.28755060001276,384.28169410000555,384.28173730001436,384.28755060001276,384.98257280001417,384.9916276000149,,,,,,,,,,,,,,,,,,,,,,,,,,,,,,,,,,,,,,,,,,,,,,,,,,,,,,,,,,,,,,sub137,motor,4,0,2024-12-13_09h15.15.184,ASRT_motor,2023.2.3,143.56285683068376,2024-12-13 09h15.37.925177 +0800,
,2,180,3,1,red,sequences/sub137_practice_sequence_00.csv,,,,,,,,,,,0,0,0,0,0,53,53,10,,,,,,,,,,,,,,,,,,,,,384.9916276000149,,,,,,,,,,,,,384.9834656000021,384.9916276000149,384.9916276000149,385.19617239999934,385.58331390001695,1,1,0.5871675999951549,None,385.5846628000145,385.59267620000173,385.59267620000173,385.7931366999983,386.0013549000141,385.9957719000231,385.9958021000202,386.0013549000141,386.69648860002053,386.70326920002117,,,,,,,,,,,,,,,,,,,,,,,,,,,,,,,,,,,,,,,,,,,,,,,,,,,,,,,,,,,,,,sub137,motor,4,0,2024-12-13_09h15.15.184,ASRT_motor,2023.2.3,143.56285683068376,2024-12-13 09h15.37.925177 +0800,
,3,270,0,4,red,sequences/sub137_practice_sequence_00.csv,,,,,,,,,,,0,0,0,0,0,54,54,62,,,,,,,,,,,,,,,,,,,,,386.70326920002117,,,,,,,,,,,,,386.6970524000062,386.70326920002117,386.70326920002117,386.9042951000156,387.22526880001533,4,1,0.5152914000209421,None,387.22598260000814,387.2318002000102,387.2318002000102,387.4385225000151,387.6469389999984,387.6410375999985,387.6410797999997,387.6469389999984,388.3430577000254,,,,,,,,,,,,,,,,,,,,,,,,,,,,,,,,,,,,,,,,,,,,,,,,,,,,,,,,,,,,,,,sub137,motor,4,0,2024-12-13_09h15.15.184,ASRT_motor,2023.2.3,143.56285683068376,2024-12-13 09h15.37.925177 +0800,
,0,0,1,3,red,sequences/sub137_practice_sequence_00.csv,,,,,,,,,,,0,0,0,0,0,55,55,34,,,,,,,,,,,,,,,,,,,,,388.3489514000248,,,,,,,,,,,,,388.3435267000168,388.3489514000248,388.3489514000248,388.54981500000576,389.04422190002515,3,1,0.6886749000113923,None,389.04508910002187,389.0510113000055,389.0510113000055,389.2587134000205,389.4664419000037,389.4606747000071,389.46071330000996,389.4664419000037,390.1645883000165,,,,,,,,,,,,,,,,,,,,,,,,,,,,,,,,,,,,,,,,,,,,,,,,,,,,,,,,,,,,,,,sub137,motor,4,0,2024-12-13_09h15.15.184,ASRT_motor,2023.2.3,143.56285683068376,2024-12-13 09h15.37.925177 +0800,
,2,180,3,1,red,sequences/sub137_practice_sequence_00.csv,,,,,,,,,,,0,0,0,0,0,56,56,65,,,,,,,,,,,,,,,,,,,,,390.17254080000566,,,,,,,,,,,,,390.1653192000231,390.17254080000566,390.17254080000566,390.3763153000036,390.6863018000149,1,1,0.5089109999826178,None,390.6870592000196,390.6951570000092,390.6951570000092,390.89721080000163,391.10781760001555,391.101513600006,391.1015715000103,391.10781760001555,391.8068392999994,,,,,,,,,,,,,,,,,,,,,,,,,,,,,,,,,,,,,,,,,,,,,,,,,,,,,,,,,,,,,,,sub137,motor,4,0,2024-12-13_09h15.15.184,ASRT_motor,2023.2.3,143.56285683068376,2024-12-13 09h15.37.925177 +0800,
,0,0,1,3,red,sequences/sub137_practice_sequence_00.csv,,,,,,,,,,,0,0,0,0,0,57,57,61,,,,,,,,,,,,,,,,,,,,,391.8135817000002,,,,,,,,,,,,,391.8073635000037,391.8135817000002,391.8135817000002,392.01526420001755,392.43451180000557,3,1,0.6149696000211406,None,392.4352206000185,392.4419556000212,392.4419556000212,392.6472216999973,392.8565032000188,392.8505605000246,392.8506112000032,392.8565032000188,393.5509279000107,393.5565889000136,,,,,,,,,,,,,,,,,,,,,,,,,,,,,,,,,,,,,,,,,,,,,,,,,,,,,,,,,,,,,,sub137,motor,4,0,2024-12-13_09h15.15.184,ASRT_motor,2023.2.3,143.56285683068376,2024-12-13 09h15.37.925177 +0800,
,3,270,0,4,red,sequences/sub137_practice_sequence_00.csv,,,,,,,,,,,0,0,0,0,0,58,58,38,,,,,,,,,,,,,,,,,,,,,393.5565889000136,,,,,,,,,,,,,393.55155289999675,393.5565889000136,393.5565889000136,393.7581631000212,394.1372052000079,4,1,0.5768199999874923,None,394.13797940002405,394.1472066999995,394.1472066999995,394.3484473999997,394.55752329999814,394.5518540000194,394.5519048999995,394.55752329999814,395.25276130001293,395.2599079000065,,,,,,,,,,,,,,,,,,,,,,,,,,,,,,,,,,,,,,,,,,,,,,,,,,,,,,,,,,,,,,sub137,motor,4,0,2024-12-13_09h15.15.184,ASRT_motor,2023.2.3,143.56285683068376,2024-12-13 09h15.37.925177 +0800,
,0,0,1,3,red,sequences/sub137_practice_sequence_00.csv,,,,,,,,,,,0,0,0,0,0,59,59,17,,,,,,,,,,,,,,,,,,,,,395.2599079000065,,,,,,,,,,,,,395.2537613000022,395.2599079000065,395.2599079000065,395.4593908000097,395.690680300002,4,0,0.42422039998928085,None,395.69122269999934,395.70363900001394,395.70363900001394,395.90391540000564,396.11220770000364,396.10663240001304,396.10666240000864,396.11220770000364,396.80719030002365,,,,,,,,,,,,,,,,,,,,,,,,,,,,,,,,,,,,,,,,,,,,,,,,,,,,,,,,,,,,,,,sub137,motor,4,0,2024-12-13_09h15.15.184,ASRT_motor,2023.2.3,143.56285683068376,2024-12-13 09h15.37.925177 +0800,
,3,270,0,4,red,sequences/sub137_practice_sequence_00.csv,,,,,,,,,,,0,0,0,0,0,60,60,40,,,,,,,,,,,,,,,,,,,,,396.81337670001085,,,,,,,,,,,,,396.8077986999997,396.81337670001085,396.81337670001085,397.01481190000777,397.4894222000148,1,0,0.6689864000072703,None,397.4901115000248,397.4977224000031,397.4977224000031,397.70246510001016,397.9105508000066,397.9043617999996,397.9043934000074,397.9105508000066,398.60488490000716,,,,,,,,,,,,,,,,,,,,,,,,,,,,,,,,,,,,,,,,,,,,,,,,,,,,,,,,,,,,,,,sub137,motor,4,0,2024-12-13_09h15.15.184,ASRT_motor,2023.2.3,143.56285683068376,2024-12-13 09h15.37.925177 +0800,
,3,270,0,4,red,sequences/sub137_practice_sequence_00.csv,,,,,,,,,,,0,0,0,0,0,61,61,82,,,,,,,,,,,,,,,,,,,,,398.61226490000263,,,,,,,,,,,,,398.60514620001777,398.61226490000263,398.61226490000263,398.8132814000128,399.1747657000087,4,1,0.5501293999841437,None,399.1753068000253,399.1799796000123,399.1799796000123,399.38290890000644,399.5910618000198,399.5849750000052,399.58504450001055,399.5910618000198,400.2862757999974,,,,,,,,,,,,,,,,,,,,,,,,,,,,,,,,,,,,,,,,,,,,,,,,,,,,,,,,,,,,,,,sub137,motor,4,0,2024-12-13_09h15.15.184,ASRT_motor,2023.2.3,143.56285683068376,2024-12-13 09h15.37.925177 +0800,
,1,90,2,2,red,sequences/sub137_practice_sequence_00.csv,,,,,,,,,,,0,0,0,0,0,62,62,13,,,,,,,,,,,,,,,,,,,,,400.2926508000237,,,,,,,,,,,,,400.28685410000617,400.2926508000237,400.2926508000237,400.49382180001703,401.0539551000111,1,0,0.7517203000024892,None,401.05470410001,401.06681000001845,401.06681000001845,401.26461640000343,401.4730387000018,401.4674778000044,401.46751260000747,401.4730387000018,402.16801130000385,,,,,,,,,,,,,,,,,,,,,,,,,,,,,,,,,,,,,,,,,,,,,,,,,,,,,,,,,,,,,,,sub137,motor,4,0,2024-12-13_09h15.15.184,ASRT_motor,2023.2.3,143.56285683068376,2024-12-13 09h15.37.925177 +0800,
,2,180,3,1,red,sequences/sub137_practice_sequence_00.csv,,,,,,,,,,,0,0,0,0,0,63,63,37,,,,,,,,,,,,,,,,,,,,,402.17534650000744,,,,,,,,,,,,,402.1688751000038,402.17534650000744,402.17534650000744,402.37575430001016,402.67820980001125,1,1,0.5002124999882653,None,402.67896730001667,402.6873854000005,402.6873854000005,402.8895898000046,403.0983620000188,403.092269100016,403.0923029000114,403.0983620000188,403.79296839999733,,,,,,,,,,,,,,,,,,,,,,,,,,,,,,,,,,,,,,,,,,,,,,,,,,,,,,,,,,,,,,,sub137,motor,4,0,2024-12-13_09h15.15.184,ASRT_motor,2023.2.3,143.56285683068376,2024-12-13 09h15.37.925177 +0800,
,0,0,1,3,red,sequences/sub137_practice_sequence_00.csv,,,,,,,,,,,0,0,0,0,0,64,64,55,,,,,,,,,,,,,,,,,,,,,403.7991683,,,,,,,,,,,,,403.7936477000185,403.7991683,403.7991683,404.00099749999936,404.35742800001753,3,1,0.5545912999950815,None,404.3580765000079,404.3638654000242,404.3638654000242,404.5703453000169,404.7784491000057,404.77348860001075,404.7736417000124,404.7784491000057,405.47396730000037,405.47980729999836,,,,,,,,,,,,,,,,,,,,,,,,,,,,,,,,,,,,,,,,,,,,,,,,,,,,,,,,,,,,,,sub137,motor,4,0,2024-12-13_09h15.15.184,ASRT_motor,2023.2.3,143.56285683068376,2024-12-13 09h15.37.925177 +0800,
,0,0,1,3,red,sequences/sub137_practice_sequence_00.csv,,,,,,,,,,,0,0,0,0,0,65,65,56,,,,,,,,,,,,,,,,,,,,,405.47980729999836,,,,,,,,,,,,,405.4744479000219,405.47980729999836,405.47980729999836,405.68150780000724,406.0163627000002,3,1,0.5321504000166897,None,406.0169481000048,406.0221020000172,406.0221020000172,406.2300920000125,406.4380368000129,406.4333586000139,406.4333999000082,406.4380368000129,407.13371150000603,407.13956199999666,,,,,,,,,,,,,,,,,,,,,,,,,,,,,,,,,,,,,,,,,,,,,,,,,,,,,,,,,,,,,,sub137,motor,4,0,2024-12-13_09h15.15.184,ASRT_motor,2023.2.3,143.56285683068376,2024-12-13 09h15.37.925177 +0800,
,0,0,1,3,red,sequences/sub137_practice_sequence_00.csv,,,,,,,,,,,0,0,0,0,0,66,66,52,,,,,,,,,,,,,,,,,,,,,407.13956199999666,,,,,,,,,,,,,407.13443980002194,407.13956199999666,407.13956199999666,407.34117710002465,407.85789130002377,3,1,0.7100219000130892,None,407.85875330001,407.8648116000113,407.8648116000113,408.07058610001695,408.28056270000525,408.2735994000104,408.27364460000535,408.28056270000525,408.97450060001574,408.98110220002127,,,,,,,,,,,,,,,,,,,,,,,,,,,,,,,,,,,,,,,,,,,,,,,,,,,,,,,,,,,,,,sub137,motor,4,0,2024-12-13_09h15.15.184,ASRT_motor,2023.2.3,143.56285683068376,2024-12-13 09h15.37.925177 +0800,
,1,90,2,2,red,sequences/sub137_practice_sequence_00.csv,,,,,,,,,,,0,0,0,0,0,67,67,48,,,,,,,,,,,,,,,,,,,,,408.98110220002127,,,,,,,,,,,,,408.97513370000524,408.98110220002127,408.98110220002127,409.1812955000205,409.7736357000249,2,1,0.7875958000076935,None,409.77426560001913,409.77984890001244,409.77984890001244,409.98740870002075,410.1950939000235,410.1887650999997,410.1887823000143,410.1950939000235,410.89043910001055,,,,,,,,,,,,,,,,,,,,,,,,,,,,,,,,,,,,,,,,,,,,,,,,,,,,,,,,,,,,,,,sub137,motor,4,0,2024-12-13_09h15.15.184,ASRT_motor,2023.2.3,143.56285683068376,2024-12-13 09h15.37.925177 +0800,
,2,180,3,1,red,sequences/sub137_practice_sequence_00.csv,,,,,,,,,,,0,0,0,0,0,68,68,5,,,,,,,,,,,,,,,,,,,,,410.89726350002456,,,,,,,,,,,,,410.89108230001875,410.89726350002456,410.89726350002456,411.0982495000062,411.4621496000036,1,1,0.5590942999988329,None,411.4629357000231,411.4686010000005,411.4686010000005,411.6742251999967,411.8827920000185,411.87654960001237,411.8765863000008,411.8827920000185,412.5772441000154,,,,,,,,,,,,,,,,,,,,,,,,,,,,,,,,,,,,,,,,,,,,,,,,,,,,,,,,,,,,,,,sub137,motor,4,0,2024-12-13_09h15.15.184,ASRT_motor,2023.2.3,143.56285683068376,2024-12-13 09h15.37.925177 +0800,
,2,180,3,1,red,sequences/sub137_practice_sequence_00.csv,,,,,,,,,,,0,0,0,0,0,69,69,24,,,,,,,,,,,,,,,,,,,,,412.5836866000027,,,,,,,,,,,,,412.57786920000217,412.5836866000027,412.5836866000027,412.78546300000744,413.2247168000031,4,0,0.6356121000135317,None,413.2254146000196,413.2348687000049,413.2348687000049,413.4386793000158,413.6465600000229,413.640773000021,413.64081360001,413.6465600000229,414.340907100006,,,,,,,,,,,,,,,,,,,,,,,,,,,,,,,,,,,,,,,,,,,,,,,,,,,,,,,,,,,,,,,sub137,motor,4,0,2024-12-13_09h15.15.184,ASRT_motor,2023.2.3,143.56285683068376,2024-12-13 09h15.37.925177 +0800,
,1,90,2,2,red,sequences/sub137_practice_sequence_00.csv,,,,,,,,,,,0,0,0,0,0,70,70,42,,,,,,,,,,,,,,,,,,,,,414.3474645000242,,,,,,,,,,,,,414.34147800001665,414.3474645000242,414.3474645000242,414.54943240000284,415.0721143000119,2,1,0.71987369999988,None,415.07284010000876,415.0790857000102,415.0790857000102,415.2852034000098,415.4935173999984,415.4885307000077,415.4885714999982,415.4935173999984,416.189626700012,416.19710690001375,,,,,,,,,,,,,,,,,,,,,,,,,,,,,,,,,,,,,,,,,,,,,,,,,,,,,,,,,,,,,,sub137,motor,4,0,2024-12-13_09h15.15.184,ASRT_motor,2023.2.3,143.56285683068376,2024-12-13 09h15.37.925177 +0800,
,2,180,3,1,red,sequences/sub137_practice_sequence_00.csv,,,,,,,,,,,0,0,0,0,0,71,71,27,,,,,,,,,,,,,,,,,,,,,416.19710690001375,,,,,,,,,,,,,416.1903355999966,416.19710690001375,416.19710690001375,416.3964197000023,416.7128345000092,1,1,0.5128033999935724,None,416.71352800002205,416.72151020000456,416.72151020000456,416.9242173000239,417.132462700014,417.12671700000647,417.12675399999716,417.132462700014,417.8274735000159,,,,,,,,,,,,,,,,,,,,,,,,,,,,,,,,,,,,,,,,,,,,,,,,,,,,,,,,,,,,,,,sub137,motor,4,0,2024-12-13_09h15.15.184,ASRT_motor,2023.2.3,143.56285683068376,2024-12-13 09h15.37.925177 +0800,
,2,180,3,1,red,sequences/sub137_practice_sequence_00.csv,,,,,,,,,,,0,0,0,0,0,72,72,18,,,,,,,,,,,,,,,,,,,,,417.8341100999969,,,,,,,,,,,,,417.82816990002175,417.8341100999969,417.8341100999969,418.0353048000252,418.3442405000096,1,1,0.5021819999965373,None,418.3447516000015,418.35066070000175,418.35066070000175,418.55635359999724,418.76434860000154,418.75827370001934,418.7583016999997,418.76434860000154,419.4592105000047,,,,,,,,,,,,,,,,,,,,,,,,,,,,,,,,,,,,,,,,,,,,,,,,,,,,,,,,,,,,,,,sub137,motor,4,0,2024-12-13_09h15.15.184,ASRT_motor,2023.2.3,143.56285683068376,2024-12-13 09h15.37.925177 +0800,
,1,90,2,2,red,sequences/sub137_practice_sequence_00.csv,,,,,,,,,,,0,0,0,0,0,73,73,33,,,,,,,,,,,,,,,,,,,,,419.4659400000237,,,,,,,,,,,,,419.4598309000139,419.4659400000237,419.4659400000237,419.6671954000194,420.1572163000237,2,1,0.6866141999780666,None,420.15781230002176,420.1635196999996,420.1635196999996,420.3685934000241,420.57676970001194,420.5709458000201,420.57098610000685,420.57676970001194,421.271550800011,,,,,,,,,,,,,,,,,,,,,,,,,,,,,,,,,,,,,,,,,,,,,,,,,,,,,,,,,,,,,,,sub137,motor,4,0,2024-12-13_09h15.15.184,ASRT_motor,2023.2.3,143.56285683068376,2024-12-13 09h15.37.925177 +0800,
,1,90,2,2,red,sequences/sub137_practice_sequence_00.csv,,,,,,,,,,,0,0,0,0,0,74,74,66,,,,,,,,,,,,,,,,,,,,,421.27781500000856,,,,,,,,,,,,,421.27195750002284,421.27781500000856,421.27781500000856,421.4798677000217,421.86438690000796,2,1,0.5783611999941058,None,421.86498150002444,421.8716221000068,421.8716221000068,422.07671170000685,422.28536830001394,422.27935520000756,422.27939199999673,422.28536830001394,422.9795901000034,,,,,,,,,,,,,,,,,,,,,,,,,,,,,,,,,,,,,,,,,,,,,,,,,,,,,,,,,,,,,,,sub137,motor,4,0,2024-12-13_09h15.15.184,ASRT_motor,2023.2.3,143.56285683068376,2024-12-13 09h15.37.925177 +0800,
