initial_random_seq_files,orientation_index,orientation_degrees,correct_answer_index,correct_answer_direction,arrow_color,practice_seq_files,learning_seq_files,motor_testing_seq_files,init_random_block.thisRepN,init_random_block.thisTrialN,init_random_block.thisN,init_random_block.thisIndex,init_random_trials.thisRepN,init_random_trials.thisTrialN,init_random_trials.thisN,init_random_trials.thisIndex,practice_blocks.thisRepN,practice_blocks.thisTrialN,practice_blocks.thisN,practice_blocks.thisIndex,practice_trials.thisRepN,practice_trials.thisTrialN,practice_trials.thisN,practice_trials.thisIndex,learning_trials.thisRepN,learning_trials.thisTrialN,learning_trials.thisN,learning_trials.thisIndex,learning_loop.thisRepN,learning_loop.thisTrialN,learning_loop.thisN,learning_loop.thisIndex,trials.thisRepN,trials.thisTrialN,trials.thisN,trials.thisIndex,motor_testing_trials.thisRepN,motor_testing_trials.thisTrialN,motor_testing_trials.thisN,motor_testing_trials.thisIndex,motor_testing_loop.thisRepN,motor_testing_loop.thisTrialN,motor_testing_loop.thisN,motor_testing_loop.thisIndex,thisRow.t,notes,welcomescreen.started,spaceship.started,welcometext.started,welcome_end.started,welcomescreen.stopped,welcome_end.keys,welcome_end.rt,welcome_end.duration,pre_section.started,fixation_init.started,pre_section.stopped,trial.started,arrowhead.started,key_resp.started,arrowhead.stopped,trial.stopped,key_resp.keys,key_resp.corr,fixation_feedback.started,cross.started,feedback_text.started,cross.stopped,feedback_text.stopped,fixation_feedback.stopped,RSI.started,text_2.started,RSI.stopped,text_2.stopped,key_resp.stopped,key_resp.rt,key_resp.duration,post_section.started,feedback_post_section.started,key_resp_4.started,post_section.stopped,key_resp_4.keys,key_resp_4.rt,key_resp_4.duration,pratice_instruction.started,spaceship_rotated.started,rotation_instruction.started,key_resp_2.started,pratice_instruction.stopped,key_resp_2.keys,key_resp_2.rt,key_resp_2.duration,fixation_init.stopped,learning_instruction.started,spaceship_rotated01.started,rotation_instruction01.started,key_resp_02.started,learning_instruction.stopped,key_resp_02.keys,key_resp_02.rt,key_resp_02.duration,seqreport_instruction.started,seqreport_instruction_text.started,seqreport_instruction_key.started,seqreport_instruction.stopped,seqreport_instruction_key.keys,seqreport_instruction_key.rt,seqreport_instruction_key.duration,seqreport.started,seq_report_key.started,seqreport.stopped,seq_report_key.keys,seq_report_key.rt,seq_report_key.duration,seqarrow.started,arrow_report.started,seqarrow.stopped,arrow_report.stopped,motor_testing_instruction.started,spaceship3.started,motor_testing_instruction_text.started,key_resp_3.started,motor_testing_instruction.stopped,key_resp_3.keys,key_resp_3.rt,key_resp_3.duration,fixation.started,cross_2.started,cross_2.stopped,fixation.stopped,thankyouscreen.started,text.started,key_resp_6.started,thankyouscreen.stopped,key_resp_6.keys,key_resp_6.rt,key_resp_6.duration,participant,learning_type,seqID,debug,date,expName,psychopyVersion,frameRate,expStart,
,,,,,,,,,,,,,,,,,,,,,,,,,,,,,,,,,,,,,,,,,,,,,,,0.07066920000943355,0.08193129999563098,0.08193129999563098,0.08193129999563098,40.02760699999635,space,39.93815490000998,None,,,,,,,,,,,,,,,,,,,,,,,,,,,,,,,,,,,,,,,,,,,,,,,,,,,,,,,,,,,,,,,,,,,,,,,,,,,,,,,,,,,,sub138,motor,1,0,2024-12-13_11h24.07.637,ASRT_motor,2023.2.3,144.30056074923542,2024-12-13 12h05.22.133705 +0800,
sequences/sub138_initial_random.csv,2,180,2,2,red,,,,0,0,0,0,0,0,0,0,,,,,,,,,,,,,,,,,,,,,,,,,,,,,41.05594819999533,,,,,,,,,,40.051358900003834,40.05419620001339,41.03260460001184,41.052087699994445,41.05594819999533,41.05594819999533,41.25510310000391,42.03347439999925,None,0,42.034524100017734,42.05129790000501,42.05129790000501,42.248229599994374,42.455904200003715,42.450712699996075,42.45076060001156,42.455904200003715,43.151161600020714,,,,,,,,,,,,,,,,,,,,,,,,,,,,,,,,,,,,,,,,,,,,,,,,,,,,,,,,,,,,,,,,,sub138,motor,1,0,2024-12-13_11h24.07.637,ASRT_motor,2023.2.3,144.30056074923542,2024-12-13 12h05.22.133705 +0800,
sequences/sub138_initial_random.csv,1,90,1,3,red,,,,0,0,0,0,0,1,1,1,,,,,,,,,,,,,,,,,,,,,,,,,,,,,43.15817619999871,,,,,,,,,,,,,43.15177700002096,43.15817619999871,43.15817619999871,43.359224100015126,44.15089590000571,None,0,44.15180980000878,44.159426400001394,44.159426400001394,44.36581270000897,44.57365010000649,44.56887380001717,44.56891140001244,44.57365010000649,45.269469100021524,45.275293000013335,,,,,,,,,,,,,,,,,,,,,,,,,,,,,,,,,,,,,,,,,,,,,,,,,,,,,,,,,,,,,,,,sub138,motor,1,0,2024-12-13_11h24.07.637,ASRT_motor,2023.2.3,144.30056074923542,2024-12-13 12h05.22.133705 +0800,
sequences/sub138_initial_random.csv,3,270,3,1,red,,,,0,0,0,0,0,2,2,2,,,,,,,,,,,,,,,,,,,,,,,,,,,,,45.275293000013335,,,,,,,,,,,,,45.27013469999656,45.275293000013335,45.275293000013335,45.47702520000166,46.2696958000015,None,0,46.27023170000757,46.27595770001062,46.27595770001062,46.48425860001589,46.692387800023425,46.68710959999589,46.68716000000131,46.692387800023425,47.38686910000979,47.39345930001582,46.27595770001062,,,,,,,,,,,,,,,,,,,,,,,,,,,,,,,,,,,,,,,,,,,,,,,,,,,,,,,,,,,,,,,sub138,motor,1,0,2024-12-13_11h24.07.637,ASRT_motor,2023.2.3,144.30056074923542,2024-12-13 12h05.22.133705 +0800,
sequences/sub138_initial_random.csv,1,90,1,3,red,,,,0,0,0,0,0,3,3,3,,,,,,,,,,,,,,,,,,,,,,,,,,,,,47.39345930001582,,,,,,,,,,,,,47.38716700000805,47.39345930001582,47.39345930001582,47.59552500001155,48.38768740001251,None,0,48.388421500014374,48.39674720002222,48.39674720002222,48.601751800015336,48.81016870000167,48.80432940000901,48.80437090000487,48.81016870000167,49.504938300000504,,48.39674720002222,,,,,,,,,,,,,,,,,,,,,,,,,,,,,,,,,,,,,,,,,,,,,,,,,,,,,,,,,,,,,,,sub138,motor,1,0,2024-12-13_11h24.07.637,ASRT_motor,2023.2.3,144.30056074923542,2024-12-13 12h05.22.133705 +0800,
sequences/sub138_initial_random.csv,0,0,0,4,red,,,,0,0,0,0,0,4,4,4,,,,,,,,,,,,,,,,,,,,,,,,,,,,,49.51164979999885,,,,,,,,,,,,,49.50549540002248,49.51164979999885,49.51164979999885,49.713030200015055,50.50544259999879,None,0,50.50618690002011,50.51388589999988,50.51388589999988,50.719347700010985,50.927965800015954,50.922460800007684,50.922505499998806,50.927965800015954,51.62252070000977,51.62912260001758,,,,,,,,,,,,,,,,,,,,,,,,,,,,,,,,,,,,,,,,,,,,,,,,,,,,,,,,,,,,,,,,sub138,motor,1,0,2024-12-13_11h24.07.637,ASRT_motor,2023.2.3,144.30056074923542,2024-12-13 12h05.22.133705 +0800,
sequences/sub138_initial_random.csv,2,180,2,2,red,,,,0,0,0,0,0,5,5,5,,,,,,,,,,,,,,,,,,,,,,,,,,,,,51.62912260001758,,,,,,,,,,,,,51.62286640002276,51.62912260001758,51.62912260001758,51.83080680001876,52.62291980002192,None,0,52.62370350002311,52.6315758000128,52.6315758000128,52.837422600016,53.04618610002217,53.040719300013734,53.040765400015516,53.04618610002217,53.74130960000912,,,,,,,,,,,,,,,,,,,,,,,,,,,,,,,,,,,,,,,,,,,,,,,,,,,,,,,,,,,,,,,,,sub138,motor,1,0,2024-12-13_11h24.07.637,ASRT_motor,2023.2.3,144.30056074923542,2024-12-13 12h05.22.133705 +0800,
sequences/sub138_initial_random.csv,1,90,1,3,red,,,,0,0,0,0,0,6,6,6,,,,,,,,,,,,,,,,,,,,,,,,,,,,,53.748366500018165,,,,,,,,,,,,,53.74196139999549,53.748366500018165,53.748366500018165,53.949219800007995,54.154418899997836,3,1,54.155498600011924,54.16341320000356,54.16341320000356,54.366227999998955,54.573464400018565,54.567411800002446,54.56742780000786,54.573464400018565,55.26819780000369,,,0.4007706000120379,None,,,,,,,,,,,,,,,,,,,,,,,,,,,,,,,,,,,,,,,,,,,,,,,,,,,,,,,,,,,,,sub138,motor,1,0,2024-12-13_11h24.07.637,ASRT_motor,2023.2.3,144.30056074923542,2024-12-13 12h05.22.133705 +0800,
sequences/sub138_initial_random.csv,2,180,2,2,red,,,,0,0,0,0,0,7,7,7,,,,,,,,,,,,,,,,,,,,,,,,,,,,,55.274928800005,,,,,,,,,,,,,55.26880930000334,55.274928800005,55.274928800005,55.47635650000302,55.874107800016645,2,1,55.87462580000283,55.878905899997335,55.878905899997335,56.08752670002286,56.295263800013345,56.28911209999933,56.28913889999967,56.295263800013345,56.991848400008166,,,0.5913990999979433,None,,,,,,,,,,,,,,,,,,,,,,,,,,,,,,,,,,,,,,,,,,,,,,,,,,,,,,,,,,,,,sub138,motor,1,0,2024-12-13_11h24.07.637,ASRT_motor,2023.2.3,144.30056074923542,2024-12-13 12h05.22.133705 +0800,
sequences/sub138_initial_random.csv,3,270,3,1,red,,,,0,0,0,0,0,8,8,8,,,,,,,,,,,,,,,,,,,,,,,,,,,,,56.998611999995774,,,,,,,,,,,,,56.99241110001458,56.998611999995774,56.998611999995774,57.1987000000081,57.37363610000466,4,0,57.37430260001565,57.38258980002138,57.38258980002138,57.58688810002059,57.79574590001721,57.78988640001626,57.78992380001,57.79574590001721,58.490775600017514,,,0.36783199998899363,None,,,,,,,,,,,,,,,,,,,,,,,,,,,,,,,,,,,,,,,,,,,,,,,,,,,,,,,,,,,,,sub138,motor,1,0,2024-12-13_11h24.07.637,ASRT_motor,2023.2.3,144.30056074923542,2024-12-13 12h05.22.133705 +0800,
sequences/sub138_initial_random.csv,2,180,2,2,red,,,,0,0,0,0,0,9,9,9,,,,,,,,,,,,,,,,,,,,,,,,,,,,,58.49772290000692,,,,,,,,,,,,,58.491542900010245,58.49772290000692,58.49772290000692,58.69870200002333,59.08288820000598,2,1,59.083554600016214,59.09016079999856,59.09016079999856,59.295910800021375,59.50417369999923,59.49888450000435,59.49892529999488,59.50417369999923,60.19944799999939,60.20542270000442,,0.580745899991598,None,,,,,,,,,,,,,,,,,,,,,,,,,,,,,,,,,,,,,,,,,,,,,,,,,,,,,,,,,,,,,sub138,motor,1,0,2024-12-13_11h24.07.637,ASRT_motor,2023.2.3,144.30056074923542,2024-12-13 12h05.22.133705 +0800,
sequences/sub138_initial_random.csv,0,0,0,4,red,,,,0,0,0,0,0,10,10,10,,,,,,,,,,,,,,,,,,,,,,,,,,,,,60.20542270000442,,,,,,,,,,,,,60.1999644000025,60.20542270000442,60.20542270000442,60.40714670001762,60.6386248000199,4,1,60.63936470000772,60.645201600011205,60.645201600011205,60.85156320000533,61.05978410001262,61.054632400017,61.0546738000121,61.05978410001262,61.7539492000069,61.76040749999811,,0.4258858999819495,None,,,,,,,,,,,,,,,,,,,,,,,,,,,,,,,,,,,,,,,,,,,,,,,,,,,,,,,,,,,,,sub138,motor,1,0,2024-12-13_11h24.07.637,ASRT_motor,2023.2.3,144.30056074923542,2024-12-13 12h05.22.133705 +0800,
sequences/sub138_initial_random.csv,2,180,2,2,red,,,,0,0,0,0,0,11,11,11,,,,,,,,,,,,,,,,,,,,,,,,,,,,,61.76040749999811,,,,,,,,,,,,,61.75424840001506,61.76040749999811,61.76040749999811,61.96261790001881,62.228458099998534,2,1,62.22911360001308,62.23612960000173,62.23612960000173,62.4416046999977,62.649483600020176,62.64359210000839,62.64361550001195,62.649483600020176,63.344444899994414,,,0.4628435000195168,None,,,,,,,,,,,,,,,,,,,,,,,,,,,,,,,,,,,,,,,,,,,,,,,,,,,,,,,,,,,,,sub138,motor,1,0,2024-12-13_11h24.07.637,ASRT_motor,2023.2.3,144.30056074923542,2024-12-13 12h05.22.133705 +0800,
sequences/sub138_initial_random.csv,3,270,3,1,red,,,,0,0,0,0,0,12,12,12,,,,,,,,,,,,,,,,,,,,,,,,,,,,,63.351161099999445,,,,,,,,,,,,,63.344810200011125,63.351161099999445,63.351161099999445,63.552648700017016,63.644026900001336,1,1,63.644642800005386,63.64936609999859,63.64936609999859,63.858207700017374,64.06689030001871,64.06094029999804,64.06097459999728,64.06689030001871,64.76130080001894,64.76788280002074,,0.2871572999865748,None,,,,,,,,,,,,,,,,,,,,,,,,,,,,,,,,,,,,,,,,,,,,,,,,,,,,,,,,,,,,,sub138,motor,1,0,2024-12-13_11h24.07.637,ASRT_motor,2023.2.3,144.30056074923542,2024-12-13 12h05.22.133705 +0800,
sequences/sub138_initial_random.csv,3,270,3,1,red,,,,0,0,0,0,0,13,13,13,,,,,,,,,,,,,,,,,,,,,,,,,,,,,64.76788280002074,,,,,,,,,,,,,64.76163850000012,64.76788280002074,64.76788280002074,64.9692403000081,65.24229160000687,1,1,65.24286980001489,65.24888700002339,65.24888700002339,65.45581430001766,65.6635421999963,65.65853750001406,65.65857530001085,65.6635421999963,66.35900440000114,,,0.4713081000081729,None,,,,,,,,,,,,,,,,,,,,,,,,,,,,,,,,,,,,,,,,,,,,,,,,,,,,,,,,,,,,,sub138,motor,1,0,2024-12-13_11h24.07.637,ASRT_motor,2023.2.3,144.30056074923542,2024-12-13 12h05.22.133705 +0800,
sequences/sub138_initial_random.csv,0,0,0,4,red,,,,0,0,0,0,0,14,14,14,,,,,,,,,,,,,,,,,,,,,,,,,,,,,66.36549379999633,,,,,,,,,,,,,66.35967259999597,66.36549379999633,66.36549379999633,66.56615420000162,66.94256500000483,4,1,66.94313600001624,66.94801950000692,66.94801950000692,67.15659769999911,67.36455359999673,67.35796950000804,67.35798880000948,67.36455359999673,68.06052470000577,,,0.5705476999864914,None,,,,,,,,,,,,,,,,,,,,,,,,,,,,,,,,,,,,,,,,,,,,,,,,,,,,,,,,,,,,,sub138,motor,1,0,2024-12-13_11h24.07.637,ASRT_motor,2023.2.3,144.30056074923542,2024-12-13 12h05.22.133705 +0800,
sequences/sub138_initial_random.csv,3,270,3,1,red,,,,0,0,0,0,0,15,15,15,,,,,,,,,,,,,,,,,,,,,,,,,,,,,68.07211280000047,,,,,,,,,,,,,68.0614043000096,68.07211280000047,68.07211280000047,68.27490920000128,68.49258780002128,1,1,68.49325200001476,68.49945550001576,68.49945550001576,68.70551749999868,68.91392240001005,68.90769160000491,68.9077324999962,68.91392240001005,69.60886870001559,,,0.41363510000519454,None,,,,,,,,,,,,,,,,,,,,,,,,,,,,,,,,,,,,,,,,,,,,,,,,,,,,,,,,,,,,,sub138,motor,1,0,2024-12-13_11h24.07.637,ASRT_motor,2023.2.3,144.30056074923542,2024-12-13 12h05.22.133705 +0800,
sequences/sub138_initial_random.csv,2,180,2,2,red,,,,0,0,0,0,0,16,16,16,,,,,,,,,,,,,,,,,,,,,,,,,,,,,69.61553969999659,,,,,,,,,,,,,69.60953660000814,69.61553969999659,69.61553969999659,69.81664940001792,70.1259164000221,2,1,70.1265754000051,70.13330790001783,70.13330790001783,70.33724740002071,70.54546480000135,70.53983490000246,70.53987280000001,70.54546480000135,71.24067650001962,71.24662520000129,,0.5014217999996617,None,,,,,,,,,,,,,,,,,,,,,,,,,,,,,,,,,,,,,,,,,,,,,,,,,,,,,,,,,,,,,sub138,motor,1,0,2024-12-13_11h24.07.637,ASRT_motor,2023.2.3,144.30056074923542,2024-12-13 12h05.22.133705 +0800,
sequences/sub138_initial_random.csv,3,270,3,1,red,,,,0,0,0,0,0,17,17,17,,,,,,,,,,,,,,,,,,,,,,,,,,,,,71.24662520000129,,,,,,,,,,,,,71.24124269999447,71.24662520000129,71.24662520000129,71.44812040001852,71.81805679999525,1,1,71.81874630000675,71.82591250000405,71.82591250000405,72.03181690000929,72.23995190000278,72.23481740002171,72.23486260001664,72.23995190000278,72.93594510000548,72.94434650000767,,0.5655970999796409,None,,,,,,,,,,,,,,,,,,,,,,,,,,,,,,,,,,,,,,,,,,,,,,,,,,,,,,,,,,,,,sub138,motor,1,0,2024-12-13_11h24.07.637,ASRT_motor,2023.2.3,144.30056074923542,2024-12-13 12h05.22.133705 +0800,
sequences/sub138_initial_random.csv,1,90,1,3,red,,,,0,0,0,0,0,18,18,18,,,,,,,,,,,,,,,,,,,,,,,,,,,,,72.94434650000767,,,,,,,,,,,,,72.93726480001351,72.94434650000767,72.94434650000767,73.14968970001792,73.33863630000269,3,1,73.3392712000059,73.3456933000125,73.3456933000125,73.55308070001774,73.7609048000013,73.75488920000498,73.75492310000118,73.7609048000013,74.45566210002289,,,0.38990469998680055,None,,,,,,,,,,,,,,,,,,,,,,,,,,,,,,,,,,,,,,,,,,,,,,,,,,,,,,,,,,,,,sub138,motor,1,0,2024-12-13_11h24.07.637,ASRT_motor,2023.2.3,144.30056074923542,2024-12-13 12h05.22.133705 +0800,
sequences/sub138_initial_random.csv,0,0,0,4,red,,,,0,0,0,0,0,19,19,19,,,,,,,,,,,,,,,,,,,,,,,,,,,,,74.46215639999718,,,,,,,,,,,,,74.45618170002126,74.46215639999718,74.46215639999718,74.66340520000085,74.7780224000162,4,1,74.7787687999953,74.78680359999998,74.78680359999998,74.98950300001889,75.19823000000906,75.19255870001507,75.19259550000424,75.19823000000906,75.89321550002205,,,0.3133834000036586,None,,,,,,,,,,,,,,,,,,,,,,,,,,,,,,,,,,,,,,,,,,,,,,,,,,,,,,,,,,,,,sub138,motor,1,0,2024-12-13_11h24.07.637,ASRT_motor,2023.2.3,144.30056074923542,2024-12-13 12h05.22.133705 +0800,
sequences/sub138_initial_random.csv,0,0,0,4,red,,,,0,0,0,0,0,20,20,20,,,,,,,,,,,,,,,,,,,,,,,,,,,,,75.8999495000171,,,,,,,,,,,,,75.89408890000777,75.8999495000171,75.8999495000171,76.10080250000465,76.38844150002114,4,1,76.38912420000997,76.39611289999448,76.39611289999448,76.6007876000076,76.80920740001602,76.80377769999905,76.80381599999964,76.80920740001602,77.50442000001203,,,0.4848794999998063,None,,,,,,,,,,,,,,,,,,,,,,,,,,,,,,,,,,,,,,,,,,,,,,,,,,,,,,,,,,,,,sub138,motor,1,0,2024-12-13_11h24.07.637,ASRT_motor,2023.2.3,144.30056074923542,2024-12-13 12h05.22.133705 +0800,
sequences/sub138_initial_random.csv,2,180,2,2,red,,,,0,0,0,0,0,21,21,21,,,,,,,,,,,,,,,,,,,,,,,,,,,,,77.51190310000675,,,,,,,,,,,,,77.50503070000559,77.51190310000675,77.51190310000675,77.71240210000542,77.94995760000893,1,0,77.95058730000164,77.95817349999561,77.95817349999561,78.16374680001172,78.37205210002139,78.3658556000155,78.36588890000712,78.37205210002139,79.06614410001202,,,0.43249100001412444,None,,,,,,,,,,,,,,,,,,,,,,,,,,,,,,,,,,,,,,,,,,,,,,,,,,,,,,,,,,,,,sub138,motor,1,0,2024-12-13_11h24.07.637,ASRT_motor,2023.2.3,144.30056074923542,2024-12-13 12h05.22.133705 +0800,
sequences/sub138_initial_random.csv,1,90,1,3,red,,,,0,0,0,0,0,22,22,22,,,,,,,,,,,,,,,,,,,,,,,,,,,,,79.07287709999946,,,,,,,,,,,,,79.06658290000632,79.07287709999946,79.07287709999946,79.27418530001887,79.53468680000515,3,1,79.5353728000191,79.54237640000065,79.54237640000065,79.74652939999942,79.95436699999846,79.94773810001789,79.9477509999997,79.95436699999846,80.65002800000366,,,0.45502130000386387,None,,,,,,,,,,,,,,,,,,,,,,,,,,,,,,,,,,,,,,,,,,,,,,,,,,,,,,,,,,,,,sub138,motor,1,0,2024-12-13_11h24.07.637,ASRT_motor,2023.2.3,144.30056074923542,2024-12-13 12h05.22.133705 +0800,
sequences/sub138_initial_random.csv,2,180,2,2,red,,,,0,0,0,0,0,23,23,23,,,,,,,,,,,,,,,,,,,,,,,,,,,,,80.65638630001922,,,,,,,,,,,,,80.65063380001811,80.65638630001922,80.65638630001922,80.85810450001736,81.33112430002075,2,1,81.33189540001331,81.33649770001648,81.33649770001648,81.54594390001148,81.75339050000184,81.74759010001435,81.74762510001892,81.75339050000184,82.44827459999942,,,0.6684979999845382,None,,,,,,,,,,,,,,,,,,,,,,,,,,,,,,,,,,,,,,,,,,,,,,,,,,,,,,,,,,,,,sub138,motor,1,0,2024-12-13_11h24.07.637,ASRT_motor,2023.2.3,144.30056074923542,2024-12-13 12h05.22.133705 +0800,
sequences/sub138_initial_random.csv,1,90,1,3,red,,,,0,0,0,0,0,24,24,24,,,,,,,,,,,,,,,,,,,,,,,,,,,,,82.45644180002273,,,,,,,,,,,,,82.44898539999849,82.45644180002273,82.45644180002273,82.65638910001144,83.04915850001271,3,1,83.04985999999917,83.05643419999979,83.05643419999979,83.26062519999687,83.46928690001369,83.46316300000763,83.46320120000746,83.46928690001369,84.16353180000442,,,0.5890394999878481,None,,,,,,,,,,,,,,,,,,,,,,,,,,,,,,,,,,,,,,,,,,,,,,,,,,,,,,,,,,,,,sub138,motor,1,0,2024-12-13_11h24.07.637,ASRT_motor,2023.2.3,144.30056074923542,2024-12-13 12h05.22.133705 +0800,
sequences/sub138_initial_random.csv,1,90,1,3,red,,,,0,0,0,0,0,25,25,25,,,,,,,,,,,,,,,,,,,,,,,,,,,,,84.17025690001901,,,,,,,,,,,,,84.16405849999865,84.17025690001901,84.17025690001901,84.37175510000088,84.55701509999926,3,1,84.55780740000773,84.56568560001324,84.56568560001324,84.76731340002152,84.97571009999956,84.97033710000687,84.97037769999588,84.97571009999956,85.67052320000948,,,0.3766866000078153,None,,,,,,,,,,,,,,,,,,,,,,,,,,,,,,,,,,,,,,,,,,,,,,,,,,,,,,,,,,,,,sub138,motor,1,0,2024-12-13_11h24.07.637,ASRT_motor,2023.2.3,144.30056074923542,2024-12-13 12h05.22.133705 +0800,
sequences/sub138_initial_random.csv,3,270,3,1,red,,,,0,0,0,0,0,26,26,26,,,,,,,,,,,,,,,,,,,,,,,,,,,,,85.67742500000168,,,,,,,,,,,,,85.6711824000231,85.67742500000168,85.67742500000168,85.87848569999915,86.10311670001829,1,1,86.10373390000314,86.11132809999981,86.11132809999981,86.31592550000641,86.52428990000044,86.51898890000302,86.5190231000015,86.52428990000044,87.2194289000181,,,0.4195469999976922,None,,,,,,,,,,,,,,,,,,,,,,,,,,,,,,,,,,,,,,,,,,,,,,,,,,,,,,,,,,,,,sub138,motor,1,0,2024-12-13_11h24.07.637,ASRT_motor,2023.2.3,144.30056074923542,2024-12-13 12h05.22.133705 +0800,
sequences/sub138_initial_random.csv,0,0,0,4,red,,,,0,0,0,0,0,27,27,27,,,,,,,,,,,,,,,,,,,,,,,,,,,,,87.22650700001395,,,,,,,,,,,,,87.22015450001345,87.22650700001395,87.22650700001395,87.42699380000704,87.50894430000335,4,1,87.50930420000805,87.51852820001659,87.51852820001659,87.72487170001841,87.92707910001627,87.92165390000446,87.92169489999651,87.92707910001627,88.62193570000818,,,0.27202289999695495,None,,,,,,,,,,,,,,,,,,,,,,,,,,,,,,,,,,,,,,,,,,,,,,,,,,,,,,,,,,,,,sub138,motor,1,0,2024-12-13_11h24.07.637,ASRT_motor,2023.2.3,144.30056074923542,2024-12-13 12h05.22.133705 +0800,
sequences/sub138_initial_random.csv,2,180,2,2,red,,,,0,0,0,0,0,28,28,28,,,,,,,,,,,,,,,,,,,,,,,,,,,,,88.62897970000631,,,,,,,,,,,,,88.62264410001808,88.62897970000631,88.62897970000631,88.83019150001928,89.3692123000219,2,1,89.36979930000962,89.37663510002312,89.37663510002312,89.5847435000178,89.78828219999559,89.78360789999715,89.7836934000079,89.78828219999559,90.48447180000949,90.49266960000386,,0.7348870999994688,None,,,,,,,,,,,,,,,,,,,,,,,,,,,,,,,,,,,,,,,,,,,,,,,,,,,,,,,,,,,,,sub138,motor,1,0,2024-12-13_11h24.07.637,ASRT_motor,2023.2.3,144.30056074923542,2024-12-13 12h05.22.133705 +0800,
sequences/sub138_initial_random.csv,2,180,2,2,red,,,,0,0,0,0,0,29,29,29,,,,,,,,,,,,,,,,,,,,,,,,,,,,,90.49266960000386,,,,,,,,,,,,,90.4850376000104,90.49266960000386,90.49266960000386,90.69756010000128,90.98474090002128,2,1,90.98530630001915,90.99227410001913,90.99227410001913,91.19766360000358,91.40601020000759,91.39999259999604,91.40002580001601,91.40601020000759,92.10115030000452,,,0.48851559998001903,None,,,,,,,,,,,,,,,,,,,,,,,,,,,,,,,,,,,,,,,,,,,,,,,,,,,,,,,,,,,,,sub138,motor,1,0,2024-12-13_11h24.07.637,ASRT_motor,2023.2.3,144.30056074923542,2024-12-13 12h05.22.133705 +0800,
sequences/sub138_initial_random.csv,1,90,1,3,red,,,,0,0,0,0,0,30,30,30,,,,,,,,,,,,,,,,,,,,,,,,,,,,,92.10791590000736,,,,,,,,,,,,,92.10195830001612,92.10791590000736,92.10791590000736,92.30890830000862,92.53976159999729,3,1,92.54033079999499,92.54799819999607,92.54799819999607,92.75349000000278,92.96165370001108,92.95588029999635,92.95591810002225,92.96165370001108,93.65664230001858,,,0.42721230001188815,None,,,,,,,,,,,,,,,,,,,,,,,,,,,,,,,,,,,,,,,,,,,,,,,,,,,,,,,,,,,,,sub138,motor,1,0,2024-12-13_11h24.07.637,ASRT_motor,2023.2.3,144.30056074923542,2024-12-13 12h05.22.133705 +0800,
sequences/sub138_initial_random.csv,0,0,0,4,red,,,,0,0,0,0,0,31,31,31,,,,,,,,,,,,,,,,,,,,,,,,,,,,,93.66365130001213,,,,,,,,,,,,,93.65737760000047,93.66365130001213,93.66365130001213,93.86440250001033,94.07462120000855,4,1,94.07524130001548,94.08211570000276,94.08211570000276,94.28899200001615,94.49647600000026,94.49034740001662,94.49038760000258,94.49647600000026,95.19146030000411,,,0.4047843999869656,None,,,,,,,,,,,,,,,,,,,,,,,,,,,,,,,,,,,,,,,,,,,,,,,,,,,,,,,,,,,,,sub138,motor,1,0,2024-12-13_11h24.07.637,ASRT_motor,2023.2.3,144.30056074923542,2024-12-13 12h05.22.133705 +0800,
sequences/sub138_initial_random.csv,3,270,3,1,red,,,,0,0,0,0,0,32,32,32,,,,,,,,,,,,,,,,,,,,,,,,,,,,,95.20104100002209,,,,,,,,,,,,,95.19233760001953,95.20104100002209,95.20104100002209,95.40607029999956,95.71415730001172,1,1,95.71489000000292,95.72078010000405,95.72078010000405,95.92682690001675,96.1349188000022,96.12919100001454,96.12921810001717,96.1349188000022,96.83046100000502,,,0.5106782000220846,None,,,,,,,,,,,,,,,,,,,,,,,,,,,,,,,,,,,,,,,,,,,,,,,,,,,,,,,,,,,,,sub138,motor,1,0,2024-12-13_11h24.07.637,ASRT_motor,2023.2.3,144.30056074923542,2024-12-13 12h05.22.133705 +0800,
sequences/sub138_initial_random.csv,1,90,1,3,red,,,,0,0,0,0,0,33,33,33,,,,,,,,,,,,,,,,,,,,,,,,,,,,,96.83763330001966,,,,,,,,,,,,,96.83118540002033,96.83763330001966,96.83763330001966,97.0378081999952,97.61605310000596,3,1,97.61671140001272,97.6249123000016,97.6249123000016,97.82988220002153,98.0382219000021,98.03245110000717,98.0324950000213,98.0382219000021,98.73257449999801,,,0.7743367000075523,None,,,,,,,,,,,,,,,,,,,,,,,,,,,,,,,,,,,,,,,,,,,,,,,,,,,,,,,,,,,,,sub138,motor,1,0,2024-12-13_11h24.07.637,ASRT_motor,2023.2.3,144.30056074923542,2024-12-13 12h05.22.133705 +0800,
sequences/sub138_initial_random.csv,2,180,2,2,red,,,,0,0,0,0,0,34,34,34,,,,,,,,,,,,,,,,,,,,,,,,,,,,,98.73904980000225,,,,,,,,,,,,,98.73299889999907,98.73904980000225,98.73904980000225,98.9408588000224,99.24860400002217,2,1,99.24920940000447,99.25611020001816,99.25611020001816,99.46207190002315,99.6695594000048,99.66452610000852,99.66456309999921,99.6695594000048,100.36492400002317,100.3711266000173,,0.5024582000041846,None,,,,,,,,,,,,,,,,,,,,,,,,,,,,,,,,,,,,,,,,,,,,,,,,,,,,,,,,,,,,,sub138,motor,1,0,2024-12-13_11h24.07.637,ASRT_motor,2023.2.3,144.30056074923542,2024-12-13 12h05.22.133705 +0800,
sequences/sub138_initial_random.csv,3,270,3,1,red,,,,0,0,0,0,0,35,35,35,,,,,,,,,,,,,,,,,,,,,,,,,,,,,100.3711266000173,,,,,,,,,,,,,100.3654732000141,100.3711266000173,100.3711266000173,100.57263100001728,100.74151280001388,1,1,100.74219750001794,100.74763900000835,100.74763900000835,100.95468680001795,101.16296260000672,101.15689720000955,101.15693130000727,101.16296260000672,101.85730689999764,,,0.3640933000133373,None,,,,,,,,,,,,,,,,,,,,,,,,,,,,,,,,,,,,,,,,,,,,,,,,,,,,,,,,,,,,,sub138,motor,1,0,2024-12-13_11h24.07.637,ASRT_motor,2023.2.3,144.30056074923542,2024-12-13 12h05.22.133705 +0800,
sequences/sub138_initial_random.csv,3,270,3,1,red,,,,0,0,0,0,0,36,36,36,,,,,,,,,,,,,,,,,,,,,,,,,,,,,101.86435499999789,,,,,,,,,,,,,101.857820300007,101.86435499999789,101.86435499999789,102.06584540000767,102.29684200001066,1,1,102.29744630001369,102.30364230001578,102.30364230001578,102.51022399999783,102.71822370000882,102.71258770002169,102.71261859999504,102.71822370000882,103.41317860002164,,,0.42959759998484515,None,,,,,,,,,,,,,,,,,,,,,,,,,,,,,,,,,,,,,,,,,,,,,,,,,,,,,,,,,,,,,sub138,motor,1,0,2024-12-13_11h24.07.637,ASRT_motor,2023.2.3,144.30056074923542,2024-12-13 12h05.22.133705 +0800,
sequences/sub138_initial_random.csv,1,90,1,3,red,,,,0,0,0,0,0,37,37,37,,,,,,,,,,,,,,,,,,,,,,,,,,,,,103.42052810001769,,,,,,,,,,,,,103.41385670000454,103.42052810001769,103.42052810001769,103.62142060001497,103.88281880001887,3,1,103.88342210001429,103.89110589999473,103.89110589999473,104.09369280000101,104.30176180001581,104.29541770002106,104.29545030000736,104.30176180001581,104.99706170000718,,,0.45869349999702536,None,,,,,,,,,,,,,,,,,,,,,,,,,,,,,,,,,,,,,,,,,,,,,,,,,,,,,,,,,,,,,sub138,motor,1,0,2024-12-13_11h24.07.637,ASRT_motor,2023.2.3,144.30056074923542,2024-12-13 12h05.22.133705 +0800,
sequences/sub138_initial_random.csv,3,270,3,1,red,,,,0,0,0,0,0,38,38,38,,,,,,,,,,,,,,,,,,,,,,,,,,,,,105.00350180000532,,,,,,,,,,,,,104.99767830001656,105.00350180000532,105.00350180000532,105.20504030000302,105.52567090000957,1,1,105.52618770001573,105.53146040000138,105.53146040000138,105.73886110002059,105.94929010001943,105.94240910001099,105.94246099999873,105.94929010001943,106.64279280000483,106.6489847000048,,0.5148860000190325,None,,,,,,,,,,,,,,,,,,,,,,,,,,,,,,,,,,,,,,,,,,,,,,,,,,,,,,,,,,,,,sub138,motor,1,0,2024-12-13_11h24.07.637,ASRT_motor,2023.2.3,144.30056074923542,2024-12-13 12h05.22.133705 +0800,
sequences/sub138_initial_random.csv,0,0,0,4,red,,,,0,0,0,0,0,39,39,39,,,,,,,,,,,,,,,,,,,,,,,,,,,,,106.6489847000048,,,,,,,,,,,,,106.64302070002304,106.6489847000048,106.6489847000048,106.8503496000194,107.20789810002316,4,1,107.20850639999844,107.21387420000974,107.21387420000974,107.41951040001004,107.6278791000077,107.62242100000731,107.62246149999555,107.6278791000077,108.3230506000109,108.32936770000379,,0.5561417000135407,None,,,,,,,,,,,,,,,,,,,,,,,,,,,,,,,,,,,,,,,,,,,,,,,,,,,,,,,,,,,,,sub138,motor,1,0,2024-12-13_11h24.07.637,ASRT_motor,2023.2.3,144.30056074923542,2024-12-13 12h05.22.133705 +0800,
sequences/sub138_initial_random.csv,0,0,0,4,red,,,,0,0,0,0,0,40,40,40,,,,,,,,,,,,,,,,,,,,,,,,,,,,,108.32936770000379,,,,,,,,,,,,,108.32347910001408,108.32936770000379,108.32936770000379,108.53080530001898,108.79577990001417,4,1,108.79631120001432,108.801726900012,108.801726900012,109.00967310002306,109.21828339999774,109.21275619999506,109.2127980000223,109.21828339999774,109.91363710002042,,,0.4606068000139203,None,,,,,,,,,,,,,,,,,,,,,,,,,,,,,,,,,,,,,,,,,,,,,,,,,,,,,,,,,,,,,sub138,motor,1,0,2024-12-13_11h24.07.637,ASRT_motor,2023.2.3,144.30056074923542,2024-12-13 12h05.22.133705 +0800,
sequences/sub138_initial_random.csv,1,90,1,3,red,,,,0,0,0,0,0,41,41,41,,,,,,,,,,,,,,,,,,,,,,,,,,,,,109.92051379999612,,,,,,,,,,,,,109.9142783000134,109.92051379999612,109.92051379999612,110.12094740002067,110.67928840001696,3,1,110.6799214000057,110.68637400001171,110.68637400001171,110.8917119000107,111.1001782999956,111.0939746000222,111.0940094999969,111.1001782999956,111.79500189999817,,,0.7509350999898743,None,,,,,,,,,,,,,,,,,,,,,,,,,,,,,,,,,,,,,,,,,,,,,,,,,,,,,,,,,,,,,sub138,motor,1,0,2024-12-13_11h24.07.637,ASRT_motor,2023.2.3,144.30056074923542,2024-12-13 12h05.22.133705 +0800,
sequences/sub138_initial_random.csv,2,180,2,2,red,,,,0,0,0,0,0,42,42,42,,,,,,,,,,,,,,,,,,,,,,,,,,,,,111.80128590000095,,,,,,,,,,,,,111.79554240001016,111.80128590000095,111.80128590000095,112.00316029999522,112.38645849999739,2,1,112.38711480001803,112.39252590000979,112.39252590000979,112.60016580001684,112.80816430001869,112.80224710001494,112.8022789999959,112.80816430001869,113.50370950001525,,,0.5780839000071865,None,,,,,,,,,,,,,,,,,,,,,,,,,,,,,,,,,,,,,,,,,,,,,,,,,,,,,,,,,,,,,sub138,motor,1,0,2024-12-13_11h24.07.637,ASRT_motor,2023.2.3,144.30056074923542,2024-12-13 12h05.22.133705 +0800,
sequences/sub138_initial_random.csv,1,90,1,3,red,,,,0,0,0,0,0,43,43,43,,,,,,,,,,,,,,,,,,,,,,,,,,,,,113.51015610000468,,,,,,,,,,,,,113.50443270002143,113.51015610000468,113.51015610000468,113.71121890001814,113.90569080002024,3,1,113.90622630002326,113.91199600000982,113.91199600000982,114.12093500001356,114.32905580001534,114.32393980000052,114.3239758000127,114.32905580001534,115.02426840001135,,,0.3913794000109192,None,,,,,,,,,,,,,,,,,,,,,,,,,,,,,,,,,,,,,,,,,,,,,,,,,,,,,,,,,,,,,sub138,motor,1,0,2024-12-13_11h24.07.637,ASRT_motor,2023.2.3,144.30056074923542,2024-12-13 12h05.22.133705 +0800,
sequences/sub138_initial_random.csv,1,90,1,3,red,,,,0,0,0,0,0,44,44,44,,,,,,,,,,,,,,,,,,,,,,,,,,,,,115.03227320002043,,,,,,,,,,,,,115.02501120002125,115.03227320002043,115.03227320002043,115.23215970001183,115.48423880001064,3,1,115.48500950000016,115.49059800000396,115.49059800000396,115.6972263000207,115.90563200000906,115.89963440000429,115.89967650000472,115.90563200000906,116.60028100002091,,,0.4442676000180654,None,,,,,,,,,,,,,,,,,,,,,,,,,,,,,,,,,,,,,,,,,,,,,,,,,,,,,,,,,,,,,sub138,motor,1,0,2024-12-13_11h24.07.637,ASRT_motor,2023.2.3,144.30056074923542,2024-12-13 12h05.22.133705 +0800,
sequences/sub138_initial_random.csv,2,180,2,2,red,,,,0,0,0,0,0,45,45,45,,,,,,,,,,,,,,,,,,,,,,,,,,,,,116.60673570001381,,,,,,,,,,,,,116.60079820000101,116.60673570001381,116.60673570001381,116.80824070001836,117.19263320000027,2,1,117.19343270000536,117.19955430002301,117.19955430002301,117.40607180001098,117.61417280000751,117.60803309999756,117.60805750000873,117.61417280000751,118.30890440000803,,,0.5785271999775432,None,,,,,,,,,,,,,,,,,,,,,,,,,,,,,,,,,,,,,,,,,,,,,,,,,,,,,,,,,,,,,sub138,motor,1,0,2024-12-13_11h24.07.637,ASRT_motor,2023.2.3,144.30056074923542,2024-12-13 12h05.22.133705 +0800,
sequences/sub138_initial_random.csv,2,180,2,2,red,,,,0,0,0,0,0,46,46,46,,,,,,,,,,,,,,,,,,,,,,,,,,,,,118.31498640001519,,,,,,,,,,,,,118.30946420002147,118.31498640001519,118.31498640001519,118.51677570000174,118.8807202000171,2,1,118.88145509999595,118.88776100001996,118.88776100001996,119.09312330000103,119.30140960001154,119.29582830000436,119.2958727000223,119.30140960001154,119.99638280001818,120.00260400000843,,0.5577543999825139,None,,,,,,,,,,,,,,,,,,,,,,,,,,,,,,,,,,,,,,,,,,,,,,,,,,,,,,,,,,,,,sub138,motor,1,0,2024-12-13_11h24.07.637,ASRT_motor,2023.2.3,144.30056074923542,2024-12-13 12h05.22.133705 +0800,
sequences/sub138_initial_random.csv,2,180,2,2,red,,,,0,0,0,0,0,47,47,47,,,,,,,,,,,,,,,,,,,,,,,,,,,,,120.00260400000843,,,,,,,,,,,,,119.99683950000326,120.00260400000843,120.00260400000843,120.20433580002282,120.41527280001901,2,1,120.41586900001857,120.42193410001346,120.42193410001346,120.62785140000051,120.83591950000846,120.83030670002336,120.83034710001084,120.83591950000846,121.5308487000002,,,0.4082588999881409,None,,,,,,,,,,,,,,,,,,,,,,,,,,,,,,,,,,,,,,,,,,,,,,,,,,,,,,,,,,,,,sub138,motor,1,0,2024-12-13_11h24.07.637,ASRT_motor,2023.2.3,144.30056074923542,2024-12-13 12h05.22.133705 +0800,
sequences/sub138_initial_random.csv,1,90,1,3,red,,,,0,0,0,0,0,48,48,48,,,,,,,,,,,,,,,,,,,,,,,,,,,,,121.53739380001207,,,,,,,,,,,,,121.53147340001306,121.53739380001207,121.53739380001207,121.73884460001136,121.9701178999967,3,1,121.97085090001929,121.97768340000766,121.97768340000766,122.1831044999999,122.39167919999454,122.38574030000018,122.3857718000072,122.39167919999454,123.08640480000759,,,0.4264111999946181,None,,,,,,,,,,,,,,,,,,,,,,,,,,,,,,,,,,,,,,,,,,,,,,,,,,,,,,,,,,,,,sub138,motor,1,0,2024-12-13_11h24.07.637,ASRT_motor,2023.2.3,144.30056074923542,2024-12-13 12h05.22.133705 +0800,
sequences/sub138_initial_random.csv,2,180,2,2,red,,,,0,0,0,0,0,49,49,49,,,,,,,,,,,,,,,,,,,,,,,,,,,,,123.0956870999944,,,,,,,,,,,,,123.08715470001334,123.0956870999944,123.0956870999944,123.30157599999802,123.36514110001735,2,1,123.36571600000025,123.37108179999632,123.37108179999632,123.57892820000416,123.78755100001581,123.78132330000517,123.78135370000382,123.78755100001581,124.4822175000154,,,0.2651371999818366,None,,,,,,,,,,,,,,,,,,,,,,,,,,,,,,,,,,,,,,,,,,,,,,,,,,,,,,,,,,,,,sub138,motor,1,0,2024-12-13_11h24.07.637,ASRT_motor,2023.2.3,144.30056074923542,2024-12-13 12h05.22.133705 +0800,
sequences/sub138_initial_random.csv,0,0,0,4,red,,,,0,0,0,0,0,50,50,50,,,,,,,,,,,,,,,,,,,,,,,,,,,,,124.48869550001109,,,,,,,,,,,,,124.4829449999961,124.48869550001109,124.48869550001109,124.69011640001554,125.01283960000728,4,1,125.01335350002046,125.01797350001289,125.01797350001289,125.22483310001553,125.43345080001745,125.4274934999994,125.4275300000154,125.43345080001745,126.12803490000078,,,0.5212645000137854,None,,,,,,,,,,,,,,,,,,,,,,,,,,,,,,,,,,,,,,,,,,,,,,,,,,,,,,,,,,,,,sub138,motor,1,0,2024-12-13_11h24.07.637,ASRT_motor,2023.2.3,144.30056074923542,2024-12-13 12h05.22.133705 +0800,
sequences/sub138_initial_random.csv,1,90,1,3,red,,,,0,0,0,0,0,51,51,51,,,,,,,,,,,,,,,,,,,,,,,,,,,,,126.13654940002016,,,,,,,,,,,,,126.12880470001255,126.13654940002016,126.13654940002016,126.33594720001565,126.44382860002224,3,1,126.4446724000154,126.45429330001934,126.45429330001934,126.65588690000004,126.86360949999653,126.8577163000009,126.85774540001876,126.86360949999653,127.55852489999961,,,0.3010297000000719,None,,,,,,,,,,,,,,,,,,,,,,,,,,,,,,,,,,,,,,,,,,,,,,,,,,,,,,,,,,,,,sub138,motor,1,0,2024-12-13_11h24.07.637,ASRT_motor,2023.2.3,144.30056074923542,2024-12-13 12h05.22.133705 +0800,
sequences/sub138_initial_random.csv,1,90,1,3,red,,,,0,0,0,0,0,52,52,52,,,,,,,,,,,,,,,,,,,,,,,,,,,,,127.56485350002185,,,,,,,,,,,,,127.55909560000873,127.56485350002185,127.56485350002185,127.76676660001976,127.91522840000107,3,1,127.91597650002223,127.92191970002023,127.92191970002023,128.1277386000147,128.3359481000225,128.33031010002014,128.33034390001558,128.3359481000225,129.03049180001835,,,0.3466441999771632,None,,,,,,,,,,,,,,,,,,,,,,,,,,,,,,,,,,,,,,,,,,,,,,,,,,,,,,,,,,,,,sub138,motor,1,0,2024-12-13_11h24.07.637,ASRT_motor,2023.2.3,144.30056074923542,2024-12-13 12h05.22.133705 +0800,
sequences/sub138_initial_random.csv,2,180,2,2,red,,,,0,0,0,0,0,53,53,53,,,,,,,,,,,,,,,,,,,,,,,,,,,,,129.03724150001653,,,,,,,,,,,,,129.03102280001622,129.03724150001653,129.03724150001653,129.2383770000015,129.37372490001144,2,1,129.37428650000948,129.38064139999915,129.38064139999915,129.58576280000852,129.79409650000161,129.788566800009,129.7886064000195,129.79409650000161,130.48902490001637,,,0.33309230001759715,None,,,,,,,,,,,,,,,,,,,,,,,,,,,,,,,,,,,,,,,,,,,,,,,,,,,,,,,,,,,,,sub138,motor,1,0,2024-12-13_11h24.07.637,ASRT_motor,2023.2.3,144.30056074923542,2024-12-13 12h05.22.133705 +0800,
sequences/sub138_initial_random.csv,2,180,2,2,red,,,,0,0,0,0,0,54,54,54,,,,,,,,,,,,,,,,,,,,,,,,,,,,,130.49599550000858,,,,,,,,,,,,,130.48960830000578,130.49599550000858,130.49599550000858,130.69746340002166,130.85949020000407,2,1,130.86014840001008,130.86823650001315,130.86823650001315,131.0723285000131,131.2802459000086,131.2741966000176,131.27422890000162,131.2802459000086,131.97526410000864,,,0.36106789999757893,None,,,,,,,,,,,,,,,,,,,,,,,,,,,,,,,,,,,,,,,,,,,,,,,,,,,,,,,,,,,,,sub138,motor,1,0,2024-12-13_11h24.07.637,ASRT_motor,2023.2.3,144.30056074923542,2024-12-13 12h05.22.133705 +0800,
sequences/sub138_initial_random.csv,2,180,2,2,red,,,,0,0,0,0,0,55,55,55,,,,,,,,,,,,,,,,,,,,,,,,,,,,,131.98191719999886,,,,,,,,,,,,,131.97594920001575,131.98191719999886,131.98191719999886,132.18315320002148,132.24942480001482,2,1,132.25005669999518,132.25718700001016,132.25718700001016,132.46107220000704,132.66902240001946,132.66330620000372,132.66333430001396,132.66902240001946,133.3640538000036,,,0.2641153000004124,None,,,,,,,,,,,,,,,,,,,,,,,,,,,,,,,,,,,,,,,,,,,,,,,,,,,,,,,,,,,,,sub138,motor,1,0,2024-12-13_11h24.07.637,ASRT_motor,2023.2.3,144.30056074923542,2024-12-13 12h05.22.133705 +0800,
sequences/sub138_initial_random.csv,3,270,3,1,red,,,,0,0,0,0,0,56,56,56,,,,,,,,,,,,,,,,,,,,,,,,,,,,,133.37026340002194,,,,,,,,,,,,,133.3646577000036,133.37026340002194,133.37026340002194,133.571958000015,133.83146450002096,1,1,133.83194090001052,133.83553110001958,133.83553110001958,134.04408990000957,134.25285069999518,134.2466371000046,134.2466777000227,134.25285069999518,134.94721070001833,,,0.4587912999850232,None,,,,,,,,,,,,,,,,,,,,,,,,,,,,,,,,,,,,,,,,,,,,,,,,,,,,,,,,,,,,,sub138,motor,1,0,2024-12-13_11h24.07.637,ASRT_motor,2023.2.3,144.30056074923542,2024-12-13 12h05.22.133705 +0800,
sequences/sub138_initial_random.csv,0,0,0,4,red,,,,0,0,0,0,0,57,57,57,,,,,,,,,,,,,,,,,,,,,,,,,,,,,134.95371020000312,,,,,,,,,,,,,134.9477989000152,134.95371020000312,134.95371020000312,135.1549612999952,135.22685300000012,2,0,135.22732430000906,135.23655120001058,135.23655120001058,135.43985530000646,135.64788699999917,135.64225100001204,135.64227949999622,135.64788699999917,136.34280240000226,,,0.2695659000019077,None,,,,,,,,,,,,,,,,,,,,,,,,,,,,,,,,,,,,,,,,,,,,,,,,,,,,,,,,,,,,,sub138,motor,1,0,2024-12-13_11h24.07.637,ASRT_motor,2023.2.3,144.30056074923542,2024-12-13 12h05.22.133705 +0800,
sequences/sub138_initial_random.csv,3,270,3,1,red,,,,0,0,0,0,0,58,58,58,,,,,,,,,,,,,,,,,,,,,,,,,,,,,136.34933530000853,,,,,,,,,,,,,136.3432829999947,136.34933530000853,136.34933530000853,136.5512521000055,136.8646807000041,1,1,136.8651697000023,136.87193449999904,136.87193449999904,137.07887060000212,137.28718110002228,137.2816659999953,137.28170829999726,137.28718110002228,137.98221290000947,137.98842520001926,,0.5087606000015512,None,,,,,,,,,,,,,,,,,,,,,,,,,,,,,,,,,,,,,,,,,,,,,,,,,,,,,,,,,,,,,sub138,motor,1,0,2024-12-13_11h24.07.637,ASRT_motor,2023.2.3,144.30056074923542,2024-12-13 12h05.22.133705 +0800,
sequences/sub138_initial_random.csv,1,90,1,3,red,,,,0,0,0,0,0,59,59,59,,,,,,,,,,,,,,,,,,,,,,,,,,,,,137.98842520001926,,,,,,,,,,,,,137.98267450000276,137.98842520001926,137.98842520001926,138.18996330001391,138.3660113000078,3,1,138.36656049999874,138.37270830001216,138.37270830001216,138.57873580002342,138.78780079999706,138.78189720000955,138.7819490999973,138.78780079999706,139.48279219999677,139.4890737000096,,0.3748823000059929,None,,,,,,,,,,,,,,,,,,,,,,,,,,,,,,,,,,,,,,,,,,,,,,,,,,,,,,,,,,,,,sub138,motor,1,0,2024-12-13_11h24.07.637,ASRT_motor,2023.2.3,144.30056074923542,2024-12-13 12h05.22.133705 +0800,
sequences/sub138_initial_random.csv,0,0,0,4,red,,,,0,0,0,0,0,60,60,60,,,,,,,,,,,,,,,,,,,,,,,,,,,,,139.4890737000096,,,,,,,,,,,,,139.48332699999446,139.4890737000096,139.4890737000096,139.69005240002298,139.8039975000138,4,1,139.80485119999503,139.81299190002028,139.81299190002028,140.01626500001294,140.22442370001227,140.21877289999975,140.21880970001803,140.22442370001227,140.91922609999892,,,0.3093444000114687,None,,,,,,,,,,,,,,,,,,,,,,,,,,,,,,,,,,,,,,,,,,,,,,,,,,,,,,,,,,,,,sub138,motor,1,0,2024-12-13_11h24.07.637,ASRT_motor,2023.2.3,144.30056074923542,2024-12-13 12h05.22.133705 +0800,
sequences/sub138_initial_random.csv,2,180,2,2,red,,,,0,0,0,0,0,61,61,61,,,,,,,,,,,,,,,,,,,,,,,,,,,,,140.92675790001522,,,,,,,,,,,,,140.91978290001862,140.92675790001522,140.92675790001522,141.12694109999575,141.46228659999906,2,1,141.4628438000218,141.46800880000228,141.46800880000228,141.6758741000085,141.8840707000054,141.87802800000645,141.87806129999808,141.8840707000054,142.57890240001143,,,0.5299032999901101,None,,,,,,,,,,,,,,,,,,,,,,,,,,,,,,,,,,,,,,,,,,,,,,,,,,,,,,,,,,,,,sub138,motor,1,0,2024-12-13_11h24.07.637,ASRT_motor,2023.2.3,144.30056074923542,2024-12-13 12h05.22.133705 +0800,
sequences/sub138_initial_random.csv,0,0,0,4,red,,,,0,0,0,0,0,62,62,62,,,,,,,,,,,,,,,,,,,,,,,,,,,,,142.5853150000039,,,,,,,,,,,,,142.57941610002308,142.5853150000039,142.5853150000039,142.78725120000308,142.97719340000185,4,1,142.97778200000175,142.98310169999604,142.98310169999604,143.18984430001,143.39803860001848,143.3928164000099,143.39285480001126,143.39803860001848,144.0934675000026,144.099134100019,,0.3883960999955889,None,,,,,,,,,,,,,,,,,,,,,,,,,,,,,,,,,,,,,,,,,,,,,,,,,,,,,,,,,,,,,sub138,motor,1,0,2024-12-13_11h24.07.637,ASRT_motor,2023.2.3,144.30056074923542,2024-12-13 12h05.22.133705 +0800,
sequences/sub138_initial_random.csv,1,90,1,3,red,,,,0,0,0,0,0,63,63,63,,,,,,,,,,,,,,,,,,,,,,,,,,,,,144.099134100019,,,,,,,,,,,,,144.0939844000095,144.099134100019,144.099134100019,144.30068980000215,144.51171400002204,3,1,144.51229300000705,144.5172516000166,144.5172516000166,144.72445999999763,144.9332568999962,144.92703489999985,144.92707820000942,144.9332568999962,145.6272702999995,,,0.4086525000166148,None,,,,,,,,,,,,,,,,,,,,,,,,,,,,,,,,,,,,,,,,,,,,,,,,,,,,,,,,,,,,,sub138,motor,1,0,2024-12-13_11h24.07.637,ASRT_motor,2023.2.3,144.30056074923542,2024-12-13 12h05.22.133705 +0800,
sequences/sub138_initial_random.csv,1,90,1,3,red,,,,0,0,0,0,0,64,64,64,,,,,,,,,,,,,,,,,,,,,,,,,,,,,145.6342857000127,,,,,,,,,,,,,145.62795280001592,145.6342857000127,145.6342857000127,145.8353921000089,145.99728999999934,4,0,145.9979255000071,146.00800150001305,146.00800150001305,146.21052290001535,146.418814500008,146.4130068999948,146.4130417999986,146.418814500008,147.11312950000865,,,0.3589240000001155,None,,,,,,,,,,,,,,,,,,,,,,,,,,,,,,,,,,,,,,,,,,,,,,,,,,,,,,,,,,,,,sub138,motor,1,0,2024-12-13_11h24.07.637,ASRT_motor,2023.2.3,144.30056074923542,2024-12-13 12h05.22.133705 +0800,
sequences/sub138_initial_random.csv,0,0,0,4,red,,,,0,0,0,0,0,65,65,65,,,,,,,,,,,,,,,,,,,,,,,,,,,,,147.12051219999557,,,,,,,,,,,,,147.11377009999705,147.12051219999557,147.12051219999557,147.32173660001718,147.46196960000088,4,1,147.46250090000103,147.46848100001807,147.46848100001807,147.67571160002262,147.88437949999934,147.87875830000849,147.87880370000494,147.88437949999934,148.57950000002165,148.58524919999763,,0.3338252999819815,None,,,,,,,,,,,,,,,,,,,,,,,,,,,,,,,,,,,,,,,,,,,,,,,,,,,,,,,,,,,,,sub138,motor,1,0,2024-12-13_11h24.07.637,ASRT_motor,2023.2.3,144.30056074923542,2024-12-13 12h05.22.133705 +0800,
sequences/sub138_initial_random.csv,2,180,2,2,red,,,,0,0,0,0,0,66,66,66,,,,,,,,,,,,,,,,,,,,,,,,,,,,,148.58524919999763,,,,,,,,,,,,,148.5800520000048,148.58524919999763,148.58524919999763,148.78674840001622,149.23348570000962,2,1,149.23405610001646,149.2395433000056,149.2395433000056,149.45064490000368,149.65478159999475,149.6498527000076,149.64989709999645,149.65478159999475,150.35084070000448,150.35625740000978,,0.6432035000179894,None,,,,,,,,,,,,,,,,,,,,,,,,,,,,,,,,,,,,,,,,,,,,,,,,,,,,,,,,,,,,,sub138,motor,1,0,2024-12-13_11h24.07.637,ASRT_motor,2023.2.3,144.30056074923542,2024-12-13 12h05.22.133705 +0800,
sequences/sub138_initial_random.csv,2,180,2,2,red,,,,0,0,0,0,0,67,67,67,,,,,,,,,,,,,,,,,,,,,,,,,,,,,150.35625740000978,,,,,,,,,,,,,150.35141030000523,150.35625740000978,150.35625740000978,150.55758560000686,150.95061400000122,2,1,150.9512309000129,150.9601929000055,150.9601929000055,151.16199560000678,151.37009520002175,151.36394260000088,151.36397239999496,151.37009520002175,152.0653111000138,,,0.5907473999832291,None,,,,,,,,,,,,,,,,,,,,,,,,,,,,,,,,,,,,,,,,,,,,,,,,,,,,,,,,,,,,,sub138,motor,1,0,2024-12-13_11h24.07.637,ASRT_motor,2023.2.3,144.30056074923542,2024-12-13 12h05.22.133705 +0800,
sequences/sub138_initial_random.csv,0,0,0,4,red,,,,0,0,0,0,0,68,68,68,,,,,,,,,,,,,,,,,,,,,,,,,,,,,152.0715218000114,,,,,,,,,,,,,152.06583440001123,152.0715218000114,152.0715218000114,152.2727819000138,152.491171200003,4,1,152.49178460001713,152.49739110001246,152.49739110001246,152.7034215000167,152.91152580000926,152.90595549999853,152.9059882000147,152.91152580000926,153.606388300017,,,0.41702180000720546,None,,,,,,,,,,,,,,,,,,,,,,,,,,,,,,,,,,,,,,,,,,,,,,,,,,,,,,,,,,,,,sub138,motor,1,0,2024-12-13_11h24.07.637,ASRT_motor,2023.2.3,144.30056074923542,2024-12-13 12h05.22.133705 +0800,
sequences/sub138_initial_random.csv,1,90,1,3,red,,,,0,0,0,0,0,69,69,69,,,,,,,,,,,,,,,,,,,,,,,,,,,,,153.6129811000137,,,,,,,,,,,,,153.60696790000657,153.6129811000137,153.6129811000137,153.81441700001596,154.10208820001571,3,1,154.10273460001918,154.10808259999612,154.10808259999612,154.3143345999997,154.52247470000293,154.5166043000063,154.51662949999445,154.52247470000293,155.2174195999978,,,0.4855352000158746,None,,,,,,,,,,,,,,,,,,,,,,,,,,,,,,,,,,,,,,,,,,,,,,,,,,,,,,,,,,,,,sub138,motor,1,0,2024-12-13_11h24.07.637,ASRT_motor,2023.2.3,144.30056074923542,2024-12-13 12h05.22.133705 +0800,
sequences/sub138_initial_random.csv,1,90,1,3,red,,,,0,0,0,0,0,70,70,70,,,,,,,,,,,,,,,,,,,,,,,,,,,,,155.22406490001595,,,,,,,,,,,,,155.21798489999492,155.22406490001595,155.22406490001595,155.42573720001383,155.8232043000171,3,1,155.82386800000677,155.82936050000717,155.82936050000717,156.03654980001738,156.2448234000185,156.2391076000058,156.23914040002273,156.2448234000185,156.93972750002285,,,0.5944082999776583,None,,,,,,,,,,,,,,,,,,,,,,,,,,,,,,,,,,,,,,,,,,,,,,,,,,,,,,,,,,,,,sub138,motor,1,0,2024-12-13_11h24.07.637,ASRT_motor,2023.2.3,144.30056074923542,2024-12-13 12h05.22.133705 +0800,
sequences/sub138_initial_random.csv,0,0,0,4,red,,,,0,0,0,0,0,71,71,71,,,,,,,,,,,,,,,,,,,,,,,,,,,,,156.9481841000088,,,,,,,,,,,,,156.9407095000206,156.9481841000088,156.9481841000088,157.1475025000109,157.6922315999982,4,1,157.69280670001172,157.69852190001984,157.69852190001984,157.9044658000057,158.11311340000248,158.10725610001828,158.10729270000593,158.11311340000248,158.80755769999814,,,0.739142600010382,None,,,,,,,,,,,,,,,,,,,,,,,,,,,,,,,,,,,,,,,,,,,,,,,,,,,,,,,,,,,,,sub138,motor,1,0,2024-12-13_11h24.07.637,ASRT_motor,2023.2.3,144.30056074923542,2024-12-13 12h05.22.133705 +0800,
sequences/sub138_initial_random.csv,1,90,1,3,red,,,,0,0,0,0,0,72,72,72,,,,,,,,,,,,,,,,,,,,,,,,,,,,,158.814405800018,,,,,,,,,,,,,158.80796999999438,158.814405800018,158.814405800018,159.01603150001029,159.1644845000119,3,1,159.16516380000394,159.1719909000094,159.1719909000094,159.3769420000026,159.58957890002057,159.58123330000672,159.58129719999852,159.58957890002057,160.28737970002112,,,0.3443169000092894,None,,,,,,,,,,,,,,,,,,,,,,,,,,,,,,,,,,,,,,,,,,,,,,,,,,,,,,,,,,,,,sub138,motor,1,0,2024-12-13_11h24.07.637,ASRT_motor,2023.2.3,144.30056074923542,2024-12-13 12h05.22.133705 +0800,
sequences/sub138_initial_random.csv,1,90,1,3,red,,,,0,0,0,0,0,73,73,73,,,,,,,,,,,,,,,,,,,,,,,,,,,,,160.29448870001943,,,,,,,,,,,,,160.28799780001282,160.29448870001943,160.29448870001943,160.49441810001736,160.69120689999545,3,1,160.6917253000138,160.69808100000955,160.69808100000955,160.90492679999443,161.11424150000676,161.108879300009,161.1089380000194,161.11424150000676,161.80841180001153,161.81408090001787,,0.3928769000049215,None,,,,,,,,,,,,,,,,,,,,,,,,,,,,,,,,,,,,,,,,,,,,,,,,,,,,,,,,,,,,,sub138,motor,1,0,2024-12-13_11h24.07.637,ASRT_motor,2023.2.3,144.30056074923542,2024-12-13 12h05.22.133705 +0800,
sequences/sub138_initial_random.csv,2,180,2,2,red,,,,0,0,0,0,0,74,74,74,,,,,,,,,,,,,,,,,,,,,,,,,,,,,161.81408090001787,,,,,,,,,,,,,161.8092781000014,161.81408090001787,161.81408090001787,162.01616670002113,162.29889200002071,4,0,162.29989970001043,162.3085931999958,162.3085931999958,162.50881800000207,162.7169167000102,162.71132930001477,162.71136990000377,162.7169167000102,163.41205060001812,,,0.48076490001403727,None,,,,,,,,,,,,,,,,,,,,,,,,,,,,,,,,,,,,,,,,,,,,,,,,,,,,,,,,,,,,,sub138,motor,1,0,2024-12-13_11h24.07.637,ASRT_motor,2023.2.3,144.30056074923542,2024-12-13 12h05.22.133705 +0800,
sequences/sub138_initial_random.csv,2,180,2,2,red,,,,0,0,0,0,0,75,75,75,,,,,,,,,,,,,,,,,,,,,,,,,,,,,163.41967600001954,,,,,,,,,,,,,163.41273310000543,163.41967600001954,163.41967600001954,163.6201873999962,163.98431140001048,2,1,163.98523030002252,163.99259000000893,163.99259000000893,164.19625030001043,164.40441700001247,164.39860549999867,164.3986367000034,164.40441700001247,165.0994200000132,,,0.561167400010163,None,,,,,,,,,,,,,,,,,,,,,,,,,,,,,,,,,,,,,,,,,,,,,,,,,,,,,,,,,,,,,sub138,motor,1,0,2024-12-13_11h24.07.637,ASRT_motor,2023.2.3,144.30056074923542,2024-12-13 12h05.22.133705 +0800,
sequences/sub138_initial_random.csv,2,180,2,2,red,,,,0,0,0,0,0,76,76,76,,,,,,,,,,,,,,,,,,,,,,,,,,,,,165.10655250001582,,,,,,,,,,,,,165.10002070001792,165.10655250001582,165.10655250001582,165.30748650000896,165.56610789999831,2,1,165.5665672000032,165.57166400001734,165.57166400001734,165.77937669999665,165.98786560000735,165.98191830000724,165.98195090002264,165.98786560000735,166.68234830000438,,,0.45257649998529814,None,,,,,,,,,,,,,,,,,,,,,,,,,,,,,,,,,,,,,,,,,,,,,,,,,,,,,,,,,,,,,sub138,motor,1,0,2024-12-13_11h24.07.637,ASRT_motor,2023.2.3,144.30056074923542,2024-12-13 12h05.22.133705 +0800,
sequences/sub138_initial_random.csv,1,90,1,3,red,,,,0,0,0,0,0,77,77,77,,,,,,,,,,,,,,,,,,,,,,,,,,,,,166.68876499999897,,,,,,,,,,,,,166.68282850002288,166.68876499999897,166.68876499999897,166.89052519999677,167.1633153000148,3,1,167.16391600001953,167.16934710001806,167.16934710001806,167.37670470000012,167.5848969000217,167.57912979999674,167.5791642999975,167.5848969000217,168.28040180000244,,,0.46781090000877157,None,,,,,,,,,,,,,,,,,,,,,,,,,,,,,,,,,,,,,,,,,,,,,,,,,,,,,,,,,,,,,sub138,motor,1,0,2024-12-13_11h24.07.637,ASRT_motor,2023.2.3,144.30056074923542,2024-12-13 12h05.22.133705 +0800,
sequences/sub138_initial_random.csv,0,0,0,4,red,,,,0,0,0,0,0,78,78,78,,,,,,,,,,,,,,,,,,,,,,,,,,,,,168.2887621000118,,,,,,,,,,,,,168.281418700004,168.2887621000118,168.2887621000118,168.48776530000032,168.6993163000152,4,1,168.69988530001137,168.70776220000698,168.70776220000698,168.91170210001292,169.11955790000502,169.11367770002107,169.11370899999747,169.11955790000502,169.81459910000558,,,0.4078506999940146,None,,,,,,,,,,,,,,,,,,,,,,,,,,,,,,,,,,,,,,,,,,,,,,,,,,,,,,,,,,,,,sub138,motor,1,0,2024-12-13_11h24.07.637,ASRT_motor,2023.2.3,144.30056074923542,2024-12-13 12h05.22.133705 +0800,
sequences/sub138_initial_random.csv,0,0,0,4,red,,,,0,0,0,0,0,79,79,79,,,,,,,,,,,,,,,,,,,,,,,,,,,,,169.82125510001788,,,,,,,,,,,,,169.815253400011,169.82125510001788,169.82125510001788,170.02230199999758,170.25397829999565,4,1,170.25480620001326,170.26120890001766,170.26120890001766,170.46672840000247,170.67501679999987,170.6695703000005,170.66961240000091,170.67501679999987,171.37008530000458,,,0.4278197000094224,None,,,,,,,,,,,,,,,,,,,,,,,,,,,,,,,,,,,,,,,,,,,,,,,,,,,,,,,,,,,,,sub138,motor,1,0,2024-12-13_11h24.07.637,ASRT_motor,2023.2.3,144.30056074923542,2024-12-13 12h05.22.133705 +0800,
sequences/sub138_initial_random.csv,1,90,1,3,red,,,,0,0,0,0,0,80,80,80,,,,,,,,,,,,,,,,,,,,,,,,,,,,,171.3792689999973,,,,,,,,,,,,,171.37081839999883,171.3792689999973,171.3792689999973,171.5849419000151,172.00677979999455,3,1,172.00762660001055,172.0163018000021,172.0163018000021,172.217622199998,172.425263800018,172.41897550001158,172.4190161000006,172.425263800018,173.12006539999857,,,0.6234871000051498,None,,,,,,,,,,,,,,,,,,,,,,,,,,,,,,,,,,,,,,,,,,,,,,,,,,,,,,,,,,,,,sub138,motor,1,0,2024-12-13_11h24.07.637,ASRT_motor,2023.2.3,144.30056074923542,2024-12-13 12h05.22.133705 +0800,
sequences/sub138_initial_random.csv,1,90,1,3,red,,,,0,0,0,0,0,81,81,81,,,,,,,,,,,,,,,,,,,,,,,,,,,,,173.12645910002175,,,,,,,,,,,,,173.12071000001743,173.12645910002175,173.12645910002175,173.32952280002064,173.43012659999658,3,1,173.43085319999955,173.4416928999999,173.4416928999999,173.64050219999626,173.8483696000185,173.84226590002072,173.84229460000643,173.8483696000185,174.54397840000456,,,0.2991765999759082,None,,,,,,,,,,,,,,,,,,,,,,,,,,,,,,,,,,,,,,,,,,,,,,,,,,,,,,,,,,,,,sub138,motor,1,0,2024-12-13_11h24.07.637,ASRT_motor,2023.2.3,144.30056074923542,2024-12-13 12h05.22.133705 +0800,
sequences/sub138_initial_random.csv,2,180,2,2,red,,,,0,0,0,0,0,82,82,82,,,,,,,,,,,,,,,,,,,,,,,,,,,,,174.55169890000252,,,,,,,,,,,,,174.54487420001533,174.55169890000252,174.55169890000252,174.75181479999446,174.99826590000885,2,1,174.99912100000074,175.00631019999855,175.00631019999855,175.20977650000714,175.4183325000049,175.41220230000908,175.41223479999462,175.4183325000049,176.112798200018,,,0.44034229998942465,None,,,,,,,,,,,,,,,,,,,,,,,,,,,,,,,,,,,,,,,,,,,,,,,,,,,,,,,,,,,,,sub138,motor,1,0,2024-12-13_11h24.07.637,ASRT_motor,2023.2.3,144.30056074923542,2024-12-13 12h05.22.133705 +0800,
sequences/sub138_initial_random.csv,2,180,2,2,red,,,,0,0,0,0,0,83,83,83,,,,,,,,,,,,,,,,,,,,,,,,,,,,,176.120780199999,,,,,,,,,,,,,176.11360090001835,176.120780199999,176.120780199999,176.32091370000853,176.58768019999843,2,1,176.5883993000025,176.59478740001214,176.59478740001214,176.80014750000555,177.008750900015,177.00290520000271,177.0029510000022,177.008750900015,177.70318830001634,,,0.46175730001414195,None,,,,,,,,,,,,,,,,,,,,,,,,,,,,,,,,,,,,,,,,,,,,,,,,,,,,,,,,,,,,,sub138,motor,1,0,2024-12-13_11h24.07.637,ASRT_motor,2023.2.3,144.30056074923542,2024-12-13 12h05.22.133705 +0800,
sequences/sub138_initial_random.csv,1,90,1,3,red,,,,0,0,0,0,0,84,84,84,,,,,,,,,,,,,,,,,,,,,,,,,,,,,177.71028300002217,,,,,,,,,,,,,177.7040334000194,177.71028300002217,177.71028300002217,177.9110266000207,178.0531491000147,3,1,178.05381490002037,178.06169600001886,178.06169600001886,178.26505800001905,178.4735375000164,178.46820090000983,178.46824090002337,178.4735375000164,179.16874500000267,,,0.33816319998004474,None,,,,,,,,,,,,,,,,,,,,,,,,,,,,,,,,,,,,,,,,,,,,,,,,,,,,,,,,,,,,,sub138,motor,1,0,2024-12-13_11h24.07.637,ASRT_motor,2023.2.3,144.30056074923542,2024-12-13 12h05.22.133705 +0800,
,,,,,,,,,,,,,,,,,,,,,,,,,,,,,,,,,,,,,,,,,,,,,,,,,,,,,,,,,,,,,,,,,,,,,,,,,,,,,,179.1690456000215,179.21004780000658,179.21004780000658,200.1628488000133,space,20.949509500002023,None,200.16350429999875,200.1696660000016,200.1696660000016,200.1696660000016,212.1235421000165,space,11.948986800009152,None,,,,,,,,,,,,,,,,,,,,,,,,,,,,,,,,,,,,,,,,,,,,,,sub138,motor,1,0,2024-12-13_11h24.07.637,ASRT_motor,2023.2.3,144.30056074923542,2024-12-13 12h05.22.133705 +0800,
,0,0,1,3,red,sequences/sub138_practice_sequence_00.csv,,,,,,,,,,,0,0,0,0,0,0,0,30,,,,,,,,,,,,,,,,,,,,,213.15930680002202,,,,,,,,,,212.14995170000475,212.15375029999996,213.1259198000189,213.15483700000914,213.15930680002202,213.15930680002202,213.36190180000267,213.95092380000278,3,1,213.95230980002088,213.96048360000714,213.96048360000714,214.1604191000224,214.37265890001436,214.36717090001912,214.36721550000948,214.37265890001436,215.07045850000577,,,0.7865839999867603,None,,,,,,,,,,,,,,,,,,,,,,,,,,,,,,,,,,,,,,,,,,,,,,,,,,,,,,,,,,,,,sub138,motor,1,0,2024-12-13_11h24.07.637,ASRT_motor,2023.2.3,144.30056074923542,2024-12-13 12h05.22.133705 +0800,
,1,90,2,2,red,sequences/sub138_practice_sequence_00.csv,,,,,,,,,,,0,0,0,0,0,1,1,5,,,,,,,,,,,,,,,,,,,,,215.07653340001707,,,,,,,,,,,,,215.0713016000227,215.07653340001707,215.07653340001707,215.2784485000011,215.73169370001415,2,1,215.7324518999958,215.73810909999884,215.73810909999884,215.94571530001122,216.1550913999963,216.14794470000197,216.14799100000528,216.1550913999963,216.84844130001147,,,0.6475735999993049,None,,,,,,,,,,,,,,,,,,,,,,,,,,,,,,,,,,,,,,,,,,,,,,,,,,,,,,,,,,,,,sub138,motor,1,0,2024-12-13_11h24.07.637,ASRT_motor,2023.2.3,144.30056074923542,2024-12-13 12h05.22.133705 +0800,
,1,90,2,2,red,sequences/sub138_practice_sequence_00.csv,,,,,,,,,,,0,0,0,0,0,2,2,50,,,,,,,,,,,,,,,,,,,,,216.8562390000152,,,,,,,,,,,,,216.84918180000386,216.8562390000152,216.8562390000152,217.05633310001576,217.62821860000258,2,1,217.6287396000116,217.63493260001997,217.63493260001997,217.84085940002115,218.04901170000085,218.04318639999838,218.04323360000853,218.04901170000085,218.74353989999508,,,0.7681312000204343,None,,,,,,,,,,,,,,,,,,,,,,,,,,,,,,,,,,,,,,,,,,,,,,,,,,,,,,,,,,,,,sub138,motor,1,0,2024-12-13_11h24.07.637,ASRT_motor,2023.2.3,144.30056074923542,2024-12-13 12h05.22.133705 +0800,
,0,0,1,3,red,sequences/sub138_practice_sequence_00.csv,,,,,,,,,,,0,0,0,0,0,3,3,63,,,,,,,,,,,,,,,,,,,,,218.75030100002186,,,,,,,,,,,,,218.74389529999462,218.75030100002186,218.75030100002186,218.9527808999992,219.47369780001463,3,1,219.47399170001154,219.4799161000119,219.4799161000119,219.68780549999792,219.89741440000944,219.89206159999594,219.89212030000635,219.89741440000944,220.59202209999785,220.59822889999487,,0.7222047000250313,None,,,,,,,,,,,,,,,,,,,,,,,,,,,,,,,,,,,,,,,,,,,,,,,,,,,,,,,,,,,,,sub138,motor,1,0,2024-12-13_11h24.07.637,ASRT_motor,2023.2.3,144.30056074923542,2024-12-13 12h05.22.133705 +0800,
,3,270,0,4,red,sequences/sub138_practice_sequence_00.csv,,,,,,,,,,,0,0,0,0,0,4,4,21,,,,,,,,,,,,,,,,,,,,,220.59822889999487,,,,,,,,,,,,,220.59268600001815,220.59822889999487,220.59822889999487,220.79908419999992,221.3199327000184,2,0,221.3201997000142,221.32628680000198,221.32628680000198,221.5353771999944,221.74310110000079,221.7379201000149,221.7379632999946,221.74310110000079,222.43865739999455,,,0.7165115000098012,None,,,,,,,,,,,,,,,,,,,,,,,,,,,,,,,,,,,,,,,,,,,,,,,,,,,,,,,,,,,,,sub138,motor,1,0,2024-12-13_11h24.07.637,ASRT_motor,2023.2.3,144.30056074923542,2024-12-13 12h05.22.133705 +0800,
,1,90,2,2,red,sequences/sub138_practice_sequence_00.csv,,,,,,,,,,,0,0,0,0,0,5,5,47,,,,,,,,,,,,,,,,,,,,,222.4445321999956,,,,,,,,,,,,,222.43931919999886,222.4445321999956,222.4445321999956,222.64637329999823,223.07920870001544,2,1,223.07991250001942,223.08700359999784,223.08700359999784,223.29194620001363,223.5001423000067,223.49480519999634,223.494843100023,223.5001423000067,224.1954379999952,,,0.6312286999891512,None,,,,,,,,,,,,,,,,,,,,,,,,,,,,,,,,,,,,,,,,,,,,,,,,,,,,,,,,,,,,,sub138,motor,1,0,2024-12-13_11h24.07.637,ASRT_motor,2023.2.3,144.30056074923542,2024-12-13 12h05.22.133705 +0800,
,3,270,0,4,red,sequences/sub138_practice_sequence_00.csv,,,,,,,,,,,0,0,0,0,0,6,6,10,,,,,,,,,,,,,,,,,,,,,224.2016888000071,,,,,,,,,,,,,224.19620880001457,224.2016888000071,224.2016888000071,224.40337020001607,224.94708420001552,4,1,224.94773770001484,224.95360140001867,224.95360140001867,225.16024220001418,225.36885040000197,225.36335280002095,225.36341040002299,225.36885040000197,226.06384220000473,,,0.7403539000079036,None,,,,,,,,,,,,,,,,,,,,,,,,,,,,,,,,,,,,,,,,,,,,,,,,,,,,,,,,,,,,,sub138,motor,1,0,2024-12-13_11h24.07.637,ASRT_motor,2023.2.3,144.30056074923542,2024-12-13 12h05.22.133705 +0800,
,2,180,3,1,red,sequences/sub138_practice_sequence_00.csv,,,,,,,,,,,0,0,0,0,0,7,7,46,,,,,,,,,,,,,,,,,,,,,226.0724273000087,,,,,,,,,,,,,226.0645512000192,226.0724273000087,226.0724273000087,226.2787212000112,226.96980849999818,1,1,226.97056200000225,226.97670850000577,226.97670850000577,227.18074300000444,227.38975940001546,227.38391860001138,227.383968500013,227.38975940001546,228.0848203000205,228.0909850000171,,0.8906212000001688,None,,,,,,,,,,,,,,,,,,,,,,,,,,,,,,,,,,,,,,,,,,,,,,,,,,,,,,,,,,,,,sub138,motor,1,0,2024-12-13_11h24.07.637,ASRT_motor,2023.2.3,144.30056074923542,2024-12-13 12h05.22.133705 +0800,
,1,90,2,2,red,sequences/sub138_practice_sequence_00.csv,,,,,,,,,,,0,0,0,0,0,8,8,49,,,,,,,,,,,,,,,,,,,,,228.0909850000171,,,,,,,,,,,,,228.08529909999925,228.0909850000171,228.0909850000171,228.29222160001518,228.8448651000217,2,1,228.84548489999725,228.85445179999806,228.85445179999806,229.05571740001324,229.26441790000536,229.25880660000257,229.25884720002068,229.26441790000536,229.95946810001624,,,0.7485153000161517,None,,,,,,,,,,,,,,,,,,,,,,,,,,,,,,,,,,,,,,,,,,,,,,,,,,,,,,,,,,,,,sub138,motor,1,0,2024-12-13_11h24.07.637,ASRT_motor,2023.2.3,144.30056074923542,2024-12-13 12h05.22.133705 +0800,
,0,0,1,3,red,sequences/sub138_practice_sequence_00.csv,,,,,,,,,,,0,0,0,0,0,9,9,51,,,,,,,,,,,,,,,,,,,,,229.96522730001016,,,,,,,,,,,,,229.95992029999616,229.96522730001016,229.96522730001016,230.16727040000842,230.58139649999794,3,1,230.5823852000176,230.58959430002142,230.58959430002142,230.79194480000297,231.0001873000001,230.99454800001695,230.99458870000672,231.0001873000001,231.69519779999973,,,0.6116115000040736,None,,,,,,,,,,,,,,,,,,,,,,,,,,,,,,,,,,,,,,,,,,,,,,,,,,,,,,,,,,,,,sub138,motor,1,0,2024-12-13_11h24.07.637,ASRT_motor,2023.2.3,144.30056074923542,2024-12-13 12h05.22.133705 +0800,
,1,90,2,2,red,sequences/sub138_practice_sequence_00.csv,,,,,,,,,,,0,0,0,0,0,10,10,2,,,,,,,,,,,,,,,,,,,,,231.70404989999952,,,,,,,,,,,,,231.69598190000397,231.70404989999952,231.70404989999952,231.91016640001908,232.18398640002124,2,1,232.18466339999577,232.19178720001946,232.19178720001946,232.3963392000005,232.60487559999456,232.5992187000229,232.59926919999998,232.60487559999456,233.29941730000428,,,0.47150880002300255,None,,,,,,,,,,,,,,,,,,,,,,,,,,,,,,,,,,,,,,,,,,,,,,,,,,,,,,,,,,,,,sub138,motor,1,0,2024-12-13_11h24.07.637,ASRT_motor,2023.2.3,144.30056074923542,2024-12-13 12h05.22.133705 +0800,
,3,270,0,4,red,sequences/sub138_practice_sequence_00.csv,,,,,,,,,,,0,0,0,0,0,11,11,69,,,,,,,,,,,,,,,,,,,,,233.30648140000994,,,,,,,,,,,,,233.30008800001815,233.30648140000994,233.30648140000994,233.50711170001887,233.8928066000226,4,1,233.89362280000933,233.89986370000406,233.89986370000406,234.10413650001283,234.3126591000182,234.3078548000194,234.30790100002196,234.3126591000182,235.008785300015,235.01725390000502,,0.5833292999886908,None,,,,,,,,,,,,,,,,,,,,,,,,,,,,,,,,,,,,,,,,,,,,,,,,,,,,,,,,,,,,,sub138,motor,1,0,2024-12-13_11h24.07.637,ASRT_motor,2023.2.3,144.30056074923542,2024-12-13 12h05.22.133705 +0800,
,2,180,3,1,red,sequences/sub138_practice_sequence_00.csv,,,,,,,,,,,0,0,0,0,0,12,12,57,,,,,,,,,,,,,,,,,,,,,235.01725390000502,,,,,,,,,,,,,235.0094487000024,235.01725390000502,235.01725390000502,235.2156608000223,235.7705760000099,1,1,235.77152050001314,235.781341599999,235.781341599999,235.97977220002213,236.1888837000006,236.18457350000972,236.1846054000198,236.1888837000006,236.88355320002302,236.8900946000067,,0.7484881000127643,None,,,,,,,,,,,,,,,,,,,,,,,,,,,,,,,,,,,,,,,,,,,,,,,,,,,,,,,,,,,,,sub138,motor,1,0,2024-12-13_11h24.07.637,ASRT_motor,2023.2.3,144.30056074923542,2024-12-13 12h05.22.133705 +0800,
,1,90,2,2,red,sequences/sub138_practice_sequence_00.csv,,,,,,,,,,,0,0,0,0,0,13,13,73,,,,,,,,,,,,,,,,,,,,,236.8900946000067,,,,,,,,,,,,,236.88412380000227,236.8900946000067,236.8900946000067,237.09032899999875,237.54339140001684,2,1,237.54400320001878,237.54831310000736,237.54831310000736,237.7575230000075,237.96626529999776,237.96028930001194,237.9603330999962,237.96626529999776,238.66044330000295,,,0.6495673000172246,None,,,,,,,,,,,,,,,,,,,,,,,,,,,,,,,,,,,,,,,,,,,,,,,,,,,,,,,,,,,,,sub138,motor,1,0,2024-12-13_11h24.07.637,ASRT_motor,2023.2.3,144.30056074923542,2024-12-13 12h05.22.133705 +0800,
,3,270,0,4,red,sequences/sub138_practice_sequence_00.csv,,,,,,,,,,,0,0,0,0,0,14,14,24,,,,,,,,,,,,,,,,,,,,,238.6664776999969,,,,,,,,,,,,,238.66111050001928,238.6664776999969,238.6664776999969,238.86997130000964,239.20530110000982,4,1,239.20591570000397,239.21215830001165,239.21215830001165,239.41665800000192,239.62714580001193,239.62060409999685,239.62065560001065,239.62714580001193,240.3207461000129,240.3260842000018,,0.5337961000041105,None,,,,,,,,,,,,,,,,,,,,,,,,,,,,,,,,,,,,,,,,,,,,,,,,,,,,,,,,,,,,,sub138,motor,1,0,2024-12-13_11h24.07.637,ASRT_motor,2023.2.3,144.30056074923542,2024-12-13 12h05.22.133705 +0800,
,1,90,2,2,red,sequences/sub138_practice_sequence_00.csv,,,,,,,,,,,0,0,0,0,0,15,15,0,,,,,,,,,,,,,,,,,,,,,240.3260842000018,,,,,,,,,,,,,240.32134160000714,240.3260842000018,240.3260842000018,240.52794130000984,241.13543009999557,2,1,241.13627990000532,241.14593310002238,241.14593310002238,241.34721480001463,241.55539960000897,241.55005069999606,241.55009669999708,241.55539960000897,242.2504691000213,,,0.8057978000142612,None,,,,,,,,,,,,,,,,,,,,,,,,,,,,,,,,,,,,,,,,,,,,,,,,,,,,,,,,,,,,,sub138,motor,1,0,2024-12-13_11h24.07.637,ASRT_motor,2023.2.3,144.30056074923542,2024-12-13 12h05.22.133705 +0800,
,3,270,0,4,red,sequences/sub138_practice_sequence_00.csv,,,,,,,,,,,0,0,0,0,0,16,16,71,,,,,,,,,,,,,,,,,,,,,242.2567561000178,,,,,,,,,,,,,242.25108260000707,242.2567561000178,242.2567561000178,242.45891360001406,242.85634410000057,4,1,242.8569725000125,242.86207180001657,242.86207180001657,243.06913560000248,243.27760750000016,243.27231170001323,243.2723617000156,243.27760750000016,243.97287170001073,,,0.5915784999961033,None,,,,,,,,,,,,,,,,,,,,,,,,,,,,,,,,,,,,,,,,,,,,,,,,,,,,,,,,,,,,,sub138,motor,1,0,2024-12-13_11h24.07.637,ASRT_motor,2023.2.3,144.30056074923542,2024-12-13 12h05.22.133705 +0800,
,2,180,3,1,red,sequences/sub138_practice_sequence_00.csv,,,,,,,,,,,0,0,0,0,0,17,17,68,,,,,,,,,,,,,,,,,,,,,243.9819911000086,,,,,,,,,,,,,243.9736583000049,243.9819911000086,243.9819911000086,244.1877630999952,244.67757349999738,1,1,244.6783082000038,244.6847451000067,244.6847451000067,244.88875790001475,245.09763810000732,245.09190650001983,245.0919643000234,245.09763810000732,245.79257700001472,,,0.6866830000071786,None,,,,,,,,,,,,,,,,,,,,,,,,,,,,,,,,,,,,,,,,,,,,,,,,,,,,,,,,,,,,,sub138,motor,1,0,2024-12-13_11h24.07.637,ASRT_motor,2023.2.3,144.30056074923542,2024-12-13 12h05.22.133705 +0800,
,2,180,3,1,red,sequences/sub138_practice_sequence_00.csv,,,,,,,,,,,0,0,0,0,0,18,18,56,,,,,,,,,,,,,,,,,,,,,245.79918329999782,,,,,,,,,,,,,245.79323999999906,245.79918329999782,245.79918329999782,245.99970570000005,246.35698760001105,1,1,246.35772270002053,246.36437320002005,246.36437320002005,246.56975450000027,246.77813230000902,246.7717356000212,246.77176800000598,246.77813230000902,247.4726340000052,,,0.5499394000216853,None,,,,,,,,,,,,,,,,,,,,,,,,,,,,,,,,,,,,,,,,,,,,,,,,,,,,,,,,,,,,,sub138,motor,1,0,2024-12-13_11h24.07.637,ASRT_motor,2023.2.3,144.30056074923542,2024-12-13 12h05.22.133705 +0800,
,2,180,3,1,red,sequences/sub138_practice_sequence_00.csv,,,,,,,,,,,0,0,0,0,0,19,19,37,,,,,,,,,,,,,,,,,,,,,247.47842140001012,,,,,,,,,,,,,247.47333290000097,247.47842140001012,247.47842140001012,247.68068920000223,248.13441590001457,1,1,248.13516010000603,248.1409343999985,248.1409343999985,248.34725220000837,248.55539340001997,248.55025870000827,248.55029549999745,248.55539340001997,249.25160529999994,249.25829290002002,,0.6485138999996707,None,,,,,,,,,,,,,,,,,,,,,,,,,,,,,,,,,,,,,,,,,,,,,,,,,,,,,,,,,,,,,sub138,motor,1,0,2024-12-13_11h24.07.637,ASRT_motor,2023.2.3,144.30056074923542,2024-12-13 12h05.22.133705 +0800,
,3,270,0,4,red,sequences/sub138_practice_sequence_00.csv,,,,,,,,,,,0,0,0,0,0,20,20,34,,,,,,,,,,,,,,,,,,,,,249.25829290002002,,,,,,,,,,,,,249.2523177000112,249.25829290002002,249.25829290002002,249.45800929999677,249.94091100001242,4,1,249.94203619999462,249.9559780000127,249.9559780000127,250.15309860001435,250.36093399999663,250.35570670000743,250.3557509999955,250.36093399999663,251.05622660001973,251.06194929999765,,0.677430000010645,None,,,,,,,,,,,,,,,,,,,,,,,,,,,,,,,,,,,,,,,,,,,,,,,,,,,,,,,,,,,,,sub138,motor,1,0,2024-12-13_11h24.07.637,ASRT_motor,2023.2.3,144.30056074923542,2024-12-13 12h05.22.133705 +0800,
,1,90,2,2,red,sequences/sub138_practice_sequence_00.csv,,,,,,,,,,,0,0,0,0,0,21,21,78,,,,,,,,,,,,,,,,,,,,,251.06194929999765,,,,,,,,,,,,,251.05674070000532,251.06194929999765,251.06194929999765,251.26990529999603,251.69535560000804,2,1,251.6957653000136,251.70086260000244,251.70086260000244,251.90979620002327,252.11812650001957,252.11264540001866,252.11269199999515,252.11812650001957,252.81300570000894,252.81910980000976,,0.6317137999867555,None,,,,,,,,,,,,,,,,,,,,,,,,,,,,,,,,,,,,,,,,,,,,,,,,,,,,,,,,,,,,,sub138,motor,1,0,2024-12-13_11h24.07.637,ASRT_motor,2023.2.3,144.30056074923542,2024-12-13 12h05.22.133705 +0800,
,3,270,0,4,red,sequences/sub138_practice_sequence_00.csv,,,,,,,,,,,0,0,0,0,0,22,22,14,,,,,,,,,,,,,,,,,,,,,252.81910980000976,,,,,,,,,,,,,252.81343550002202,252.81910980000976,252.81910980000976,253.020383199997,253.56460559999687,4,1,253.56523619999643,253.57286090002162,253.57286090002162,253.77747410000302,253.98623130001943,253.97970900000655,253.9797464000003,253.98623130001943,254.68054480000865,,,0.7386096999980509,None,,,,,,,,,,,,,,,,,,,,,,,,,,,,,,,,,,,,,,,,,,,,,,,,,,,,,,,,,,,,,sub138,motor,1,0,2024-12-13_11h24.07.637,ASRT_motor,2023.2.3,144.30056074923542,2024-12-13 12h05.22.133705 +0800,
,1,90,2,2,red,sequences/sub138_practice_sequence_00.csv,,,,,,,,,,,0,0,0,0,0,23,23,40,,,,,,,,,,,,,,,,,,,,,254.6891556000046,,,,,,,,,,,,,254.68141740001738,254.6891556000046,254.6891556000046,254.88815199999954,255.38055010000244,2,1,255.3815392999968,255.38883650000207,255.38883650000207,255.5902730000089,255.7991985999979,255.79293530000723,255.79298500000732,255.7991985999979,256.4936874000123,,,0.6814388999773655,None,,,,,,,,,,,,,,,,,,,,,,,,,,,,,,,,,,,,,,,,,,,,,,,,,,,,,,,,,,,,,sub138,motor,1,0,2024-12-13_11h24.07.637,ASRT_motor,2023.2.3,144.30056074923542,2024-12-13 12h05.22.133705 +0800,
,0,0,1,3,red,sequences/sub138_practice_sequence_00.csv,,,,,,,,,,,0,0,0,0,0,24,24,52,,,,,,,,,,,,,,,,,,,,,256.50295039999764,,,,,,,,,,,,,256.4943792000122,256.50295039999764,256.50295039999764,256.7078868999961,257.0306376000226,3,1,257.0316015999997,257.0431374000036,257.0431374000036,257.2429585000209,257.450979700021,257.44571880000876,257.4457631999976,257.450979700021,258.1464990999957,258.1521926000132,,0.5219221000152174,None,,,,,,,,,,,,,,,,,,,,,,,,,,,,,,,,,,,,,,,,,,,,,,,,,,,,,,,,,,,,,sub138,motor,1,0,2024-12-13_11h24.07.637,ASRT_motor,2023.2.3,144.30056074923542,2024-12-13 12h05.22.133705 +0800,
,2,180,3,1,red,sequences/sub138_practice_sequence_00.csv,,,,,,,,,,,0,0,0,0,0,25,25,35,,,,,,,,,,,,,,,,,,,,,258.1521926000132,,,,,,,,,,,,,258.1470683000225,258.1521926000132,258.1521926000132,258.3536688000022,258.58696270000655,1,1,258.58777690000716,258.59458070000983,258.59458070000983,258.79852710000705,259.0064932999958,259.0012190999987,259.00126400002046,259.0064932999958,259.702337900002,259.70931000000564,,0.431344300013734,None,,,,,,,,,,,,,,,,,,,,,,,,,,,,,,,,,,,,,,,,,,,,,,,,,,,,,,,,,,,,,sub138,motor,1,0,2024-12-13_11h24.07.637,ASRT_motor,2023.2.3,144.30056074923542,2024-12-13 12h05.22.133705 +0800,
,3,270,0,4,red,sequences/sub138_practice_sequence_00.csv,,,,,,,,,,,0,0,0,0,0,26,26,58,,,,,,,,,,,,,,,,,,,,,259.70931000000564,,,,,,,,,,,,,259.70293650001986,259.70931000000564,259.70931000000564,259.9089335000026,260.24002960001235,4,1,260.24083600001177,260.24920900000143,260.24920900000143,260.45074640001985,260.6594287000189,260.6539098000212,260.65395000000717,260.6594287000189,261.35412740000174,,,0.5258193000045139,None,,,,,,,,,,,,,,,,,,,,,,,,,,,,,,,,,,,,,,,,,,,,,,,,,,,,,,,,,,,,,sub138,motor,1,0,2024-12-13_11h24.07.637,ASRT_motor,2023.2.3,144.30056074923542,2024-12-13 12h05.22.133705 +0800,
,0,0,1,3,red,sequences/sub138_practice_sequence_00.csv,,,,,,,,,,,0,0,0,0,0,27,27,20,,,,,,,,,,,,,,,,,,,,,261.36180300000706,,,,,,,,,,,,,261.3549736000132,261.36180300000706,261.36180300000706,261.562485500006,262.3551653000177,None,0,262.35614879999775,262.3732311000058,262.3732311000058,262.572195500019,262.7771349000104,262.7714872000215,262.77152949999436,262.7771349000104,263.472019000008,,,,,,,,,,,,,,,,,,,,,,,,,,,,,,,,,,,,,,,,,,,,,,,,,,,,,,,,,,,,,,,,,sub138,motor,1,0,2024-12-13_11h24.07.637,ASRT_motor,2023.2.3,144.30056074923542,2024-12-13 12h05.22.133705 +0800,
,2,180,3,1,red,sequences/sub138_practice_sequence_00.csv,,,,,,,,,,,0,0,0,0,0,28,28,31,,,,,,,,,,,,,,,,,,,,,263.47855300002266,,,,,,,,,,,,,263.4726789999986,263.47855300002266,263.47855300002266,263.68025760000455,264.17816609999863,1,1,264.1791051000182,264.1913744000194,264.1913744000194,264.3892201000126,264.5980305999983,264.59412399999565,264.5941611000162,264.5980305999983,265.2927716000122,265.2987476999988,,0.6946708000032231,None,,,,,,,,,,,,,,,,,,,,,,,,,,,,,,,,,,,,,,,,,,,,,,,,,,,,,,,,,,,,,sub138,motor,1,0,2024-12-13_11h24.07.637,ASRT_motor,2023.2.3,144.30056074923542,2024-12-13 12h05.22.133705 +0800,
,2,180,3,1,red,sequences/sub138_practice_sequence_00.csv,,,,,,,,,,,0,0,0,0,0,29,29,7,,,,,,,,,,,,,,,,,,,,,265.2987476999988,,,,,,,,,,,,,265.29353260001517,265.2987476999988,265.2987476999988,265.4999042999989,265.9336129000003,1,1,265.9343016000057,265.9406244000129,265.9406244000129,266.14581030001864,266.35435579999466,266.34805070000584,266.348089600011,266.35435579999466,267.0484967000084,,,0.6292631000105757,None,,,,,,,,,,,,,,,,,,,,,,,,,,,,,,,,,,,,,,,,,,,,,,,,,,,,,,,,,,,,,sub138,motor,1,0,2024-12-13_11h24.07.637,ASRT_motor,2023.2.3,144.30056074923542,2024-12-13 12h05.22.133705 +0800,
,0,0,1,3,red,sequences/sub138_practice_sequence_00.csv,,,,,,,,,,,0,0,0,0,0,30,30,48,,,,,,,,,,,,,,,,,,,,,267.0557716000185,,,,,,,,,,,,,267.04922509999597,267.0557716000185,267.0557716000185,267.25653559999773,267.73006030000397,3,1,267.7307099000027,267.7363170000026,267.7363170000026,267.9437340000004,268.15225700000883,268.14648940000916,268.14652460001525,268.15225700000883,268.84698220001883,,,0.6700836999807507,None,,,,,,,,,,,,,,,,,,,,,,,,,,,,,,,,,,,,,,,,,,,,,,,,,,,,,,,,,,,,,sub138,motor,1,0,2024-12-13_11h24.07.637,ASRT_motor,2023.2.3,144.30056074923542,2024-12-13 12h05.22.133705 +0800,
,2,180,3,1,red,sequences/sub138_practice_sequence_00.csv,,,,,,,,,,,0,0,0,0,0,31,31,54,,,,,,,,,,,,,,,,,,,,,268.8564713000087,,,,,,,,,,,,,268.8477263000095,268.8564713000087,268.8564713000087,269.062251299998,269.49486030000844,1,1,269.49553840002045,269.50095020001754,269.50095020001754,269.7075003000209,269.91615910001565,269.9104675000126,269.91051129999687,269.91615910001565,270.61138780001784,,,0.6325339000031818,None,,,,,,,,,,,,,,,,,,,,,,,,,,,,,,,,,,,,,,,,,,,,,,,,,,,,,,,,,,,,,sub138,motor,1,0,2024-12-13_11h24.07.637,ASRT_motor,2023.2.3,144.30056074923542,2024-12-13 12h05.22.133705 +0800,
,2,180,3,1,red,sequences/sub138_practice_sequence_00.csv,,,,,,,,,,,0,0,0,0,0,32,32,44,,,,,,,,,,,,,,,,,,,,,270.622890300001,,,,,,,,,,,,,270.612332699995,270.622890300001,270.622890300001,270.8239688000176,271.3227719000133,1,1,271.323370099999,271.3307743000041,271.3307743000041,271.53368710001814,271.7428017000202,271.73676990001695,271.73682089999784,271.7428017000202,272.43689599999925,,,0.6951945000037085,None,,,,,,,,,,,,,,,,,,,,,,,,,,,,,,,,,,,,,,,,,,,,,,,,,,,,,,,,,,,,,sub138,motor,1,0,2024-12-13_11h24.07.637,ASRT_motor,2023.2.3,144.30056074923542,2024-12-13 12h05.22.133705 +0800,
,2,180,3,1,red,sequences/sub138_practice_sequence_00.csv,,,,,,,,,,,0,0,0,0,0,33,33,15,,,,,,,,,,,,,,,,,,,,,272.44372380001005,,,,,,,,,,,,,272.43747710000025,272.44372380001005,272.44372380001005,272.6453152000031,272.9259507000097,1,1,272.9266607000027,272.93520550001995,272.93520550001995,273.1381234000146,273.3481113000016,273.3422711000021,273.3423294000095,273.3481113000016,274.04239919999964,274.04792630000156,,0.4774328999919817,None,,,,,,,,,,,,,,,,,,,,,,,,,,,,,,,,,,,,,,,,,,,,,,,,,,,,,,,,,,,,,sub138,motor,1,0,2024-12-13_11h24.07.637,ASRT_motor,2023.2.3,144.30056074923542,2024-12-13 12h05.22.133705 +0800,
,0,0,1,3,red,sequences/sub138_practice_sequence_00.csv,,,,,,,,,,,0,0,0,0,0,34,34,38,,,,,,,,,,,,,,,,,,,,,274.04792630000156,,,,,,,,,,,,,274.042901000008,274.04792630000156,274.04792630000156,274.249730200012,274.7233308000141,3,1,274.72414530001697,274.7310495999991,274.7310495999991,274.9366946000082,275.1574862000125,275.14685010001995,275.14693519999855,275.1574862000125,275.85408700001426,,,0.668813099997351,None,,,,,,,,,,,,,,,,,,,,,,,,,,,,,,,,,,,,,,,,,,,,,,,,,,,,,,,,,,,,,sub138,motor,1,0,2024-12-13_11h24.07.637,ASRT_motor,2023.2.3,144.30056074923542,2024-12-13 12h05.22.133705 +0800,
,3,270,0,4,red,sequences/sub138_practice_sequence_00.csv,,,,,,,,,,,0,0,0,0,0,35,35,64,,,,,,,,,,,,,,,,,,,,,275.86077640001895,,,,,,,,,,,,,275.8547454000218,275.86077640001895,275.86077640001895,276.06149520000326,276.41834920001565,4,1,276.41906490002293,276.42704550002236,276.42704550002236,276.6314428000187,276.8395397000131,276.83394340000814,276.8339821000118,276.8395397000131,277.53439750001417,,,0.5506385000189766,None,,,,,,,,,,,,,,,,,,,,,,,,,,,,,,,,,,,,,,,,,,,,,,,,,,,,,,,,,,,,,sub138,motor,1,0,2024-12-13_11h24.07.637,ASRT_motor,2023.2.3,144.30056074923542,2024-12-13 12h05.22.133705 +0800,
,3,270,0,4,red,sequences/sub138_practice_sequence_00.csv,,,,,,,,,,,0,0,0,0,0,36,36,16,,,,,,,,,,,,,,,,,,,,,277.54075810001814,,,,,,,,,,,,,277.5349185000232,277.54075810001814,277.54075810001814,277.7421761000005,278.1261485000141,4,1,278.12685490000877,278.13200900002266,278.13200900002266,278.3394152999972,278.5480698000174,278.54239420001977,278.5424486999982,278.5480698000174,279.2432206000085,279.2486538999947,,0.580823700001929,None,,,,,,,,,,,,,,,,,,,,,,,,,,,,,,,,,,,,,,,,,,,,,,,,,,,,,,,,,,,,,sub138,motor,1,0,2024-12-13_11h24.07.637,ASRT_motor,2023.2.3,144.30056074923542,2024-12-13 12h05.22.133705 +0800,
,0,0,1,3,red,sequences/sub138_practice_sequence_00.csv,,,,,,,,,,,0,0,0,0,0,37,37,65,,,,,,,,,,,,,,,,,,,,,279.2486538999947,,,,,,,,,,,,,279.2438222000201,279.2486538999947,279.2486538999947,279.45058679999784,279.8221679000126,3,1,279.8228605000186,279.8292061999964,279.8292061999964,280.03382959999726,280.24283309999737,280.23741600001813,280.23745710001094,280.24283309999737,280.93734900001436,280.9430696000054,,0.5703715999843553,None,,,,,,,,,,,,,,,,,,,,,,,,,,,,,,,,,,,,,,,,,,,,,,,,,,,,,,,,,,,,,sub138,motor,1,0,2024-12-13_11h24.07.637,ASRT_motor,2023.2.3,144.30056074923542,2024-12-13 12h05.22.133705 +0800,
,1,90,2,2,red,sequences/sub138_practice_sequence_00.csv,,,,,,,,,,,0,0,0,0,0,38,38,72,,,,,,,,,,,,,,,,,,,,,280.9430696000054,,,,,,,,,,,,,280.9378928000224,280.9430696000054,280.9430696000054,281.1455584000214,281.6979546000075,2,1,281.6989453000133,281.70968800000264,281.70968800000264,281.90871109999716,282.11755940000876,282.1113038000185,282.11133939999854,282.11755940000876,282.8123293000099,,,0.7487330000149086,None,,,,,,,,,,,,,,,,,,,,,,,,,,,,,,,,,,,,,,,,,,,,,,,,,,,,,,,,,,,,,sub138,motor,1,0,2024-12-13_11h24.07.637,ASRT_motor,2023.2.3,144.30056074923542,2024-12-13 12h05.22.133705 +0800,
,3,270,0,4,red,sequences/sub138_practice_sequence_00.csv,,,,,,,,,,,0,0,0,0,0,39,39,39,,,,,,,,,,,,,,,,,,,,,282.8186648999981,,,,,,,,,,,,,282.8129517000052,282.8186648999981,282.8186648999981,283.0200853999995,283.32122929999605,4,1,283.32186860000365,283.32991339999717,283.32991339999717,283.55146040002,283.7492564000131,283.7435531000083,283.7435971000232,283.7492564000131,284.44313180001336,284.4505233000091,,0.5001860000193119,None,,,,,,,,,,,,,,,,,,,,,,,,,,,,,,,,,,,,,,,,,,,,,,,,,,,,,,,,,,,,,sub138,motor,1,0,2024-12-13_11h24.07.637,ASRT_motor,2023.2.3,144.30056074923542,2024-12-13 12h05.22.133705 +0800,
,1,90,2,2,red,sequences/sub138_practice_sequence_00.csv,,,,,,,,,,,0,0,0,0,0,40,40,83,,,,,,,,,,,,,,,,,,,,,284.4505233000091,,,,,,,,,,,,,284.4433641000069,284.4505233000091,284.4505233000091,284.65197550001903,284.93989959999453,2,1,284.9405923000013,284.94742100001895,284.94742100001895,285.15175970000564,285.36052080002264,285.35485279999557,285.35489940000116,285.36052080002264,286.0554455000092,,,0.4868974999990314,None,,,,,,,,,,,,,,,,,,,,,,,,,,,,,,,,,,,,,,,,,,,,,,,,,,,,,,,,,,,,,sub138,motor,1,0,2024-12-13_11h24.07.637,ASRT_motor,2023.2.3,144.30056074923542,2024-12-13 12h05.22.133705 +0800,
,1,90,2,2,red,sequences/sub138_practice_sequence_00.csv,,,,,,,,,,,0,0,0,0,0,41,41,32,,,,,,,,,,,,,,,,,,,,,286.0646127000218,,,,,,,,,,,,,286.05619570001727,286.0646127000218,286.0646127000218,286.2700655000226,286.67526079999516,2,1,286.6757945000136,286.6820538000029,286.6820538000029,286.887641600013,287.0960403000063,287.09043710000697,287.0904689000163,287.0960403000063,287.79137459999765,,,0.6032711000007112,None,,,,,,,,,,,,,,,,,,,,,,,,,,,,,,,,,,,,,,,,,,,,,,,,,,,,,,,,,,,,,sub138,motor,1,0,2024-12-13_11h24.07.637,ASRT_motor,2023.2.3,144.30056074923542,2024-12-13 12h05.22.133705 +0800,
,1,90,2,2,red,sequences/sub138_practice_sequence_00.csv,,,,,,,,,,,0,0,0,0,0,42,42,59,,,,,,,,,,,,,,,,,,,,,287.79947710002307,,,,,,,,,,,,,287.79209699999774,287.79947710002307,287.79947710002307,287.99951990001136,288.34975570000825,2,1,288.3504331000149,288.35591260000365,288.35591260000365,288.56186570000136,288.7696368000179,288.7636072000023,288.7636367000232,288.7696368000179,289.4649042999954,,,0.5461077000072692,None,,,,,,,,,,,,,,,,,,,,,,,,,,,,,,,,,,,,,,,,,,,,,,,,,,,,,,,,,,,,,sub138,motor,1,0,2024-12-13_11h24.07.637,ASRT_motor,2023.2.3,144.30056074923542,2024-12-13 12h05.22.133705 +0800,
,3,270,0,4,red,sequences/sub138_practice_sequence_00.csv,,,,,,,,,,,0,0,0,0,0,43,43,66,,,,,,,,,,,,,,,,,,,,,289.4732003000099,,,,,,,,,,,,,289.4660317999951,289.4732003000099,289.4732003000099,289.6727635000134,290.07845110000926,4,1,290.0791754999955,290.0844294000126,290.0844294000126,290.2905972000153,290.4995048000128,290.4939529999974,290.4939975000161,290.4995048000128,291.1941269999952,,,0.6024869999964722,None,,,,,,,,,,,,,,,,,,,,,,,,,,,,,,,,,,,,,,,,,,,,,,,,,,,,,,,,,,,,,sub138,motor,1,0,2024-12-13_11h24.07.637,ASRT_motor,2023.2.3,144.30056074923542,2024-12-13 12h05.22.133705 +0800,
,3,270,0,4,red,sequences/sub138_practice_sequence_00.csv,,,,,,,,,,,0,0,0,0,0,44,44,41,,,,,,,,,,,,,,,,,,,,,291.20187000001897,,,,,,,,,,,,,291.1948080000002,291.20187000001897,291.20187000001897,291.4015759000031,291.8915011000063,4,1,291.89217180002015,291.8975221000146,291.8975221000146,292.1031938000233,292.31131260000984,292.30589020001935,292.3059348000097,292.31131260000984,293.0066376000177,,,0.6865713000006508,None,,,,,,,,,,,,,,,,,,,,,,,,,,,,,,,,,,,,,,,,,,,,,,,,,,,,,,,,,,,,,sub138,motor,1,0,2024-12-13_11h24.07.637,ASRT_motor,2023.2.3,144.30056074923542,2024-12-13 12h05.22.133705 +0800,
,1,90,2,2,red,sequences/sub138_practice_sequence_00.csv,,,,,,,,,,,0,0,0,0,0,45,45,74,,,,,,,,,,,,,,,,,,,,,293.0136254999961,,,,,,,,,,,,,293.0072493000189,293.0136254999961,293.0136254999961,293.21432100000675,293.5075303000049,2,1,293.50808220001636,293.51553330000024,293.51553330000024,293.72075450001284,293.9292335000064,293.92397850001,293.92401010001777,293.9292335000064,294.62432610001997,,,0.4864330999844242,None,,,,,,,,,,,,,,,,,,,,,,,,,,,,,,,,,,,,,,,,,,,,,,,,,,,,,,,,,,,,,sub138,motor,1,0,2024-12-13_11h24.07.637,ASRT_motor,2023.2.3,144.30056074923542,2024-12-13 12h05.22.133705 +0800,
,0,0,1,3,red,sequences/sub138_practice_sequence_00.csv,,,,,,,,,,,0,0,0,0,0,46,46,6,,,,,,,,,,,,,,,,,,,,,294.6320444000012,,,,,,,,,,,,,294.6249620000017,294.6320444000012,294.6320444000012,294.83197420000215,295.21754990000045,3,1,295.21826320001855,295.22496650001267,295.22496650001267,295.4296358000138,295.63741330002085,295.6318803000031,295.6319211999944,295.63741330002085,296.3325060000061,,,0.5814300000201911,None,,,,,,,,,,,,,,,,,,,,,,,,,,,,,,,,,,,,,,,,,,,,,,,,,,,,,,,,,,,,,sub138,motor,1,0,2024-12-13_11h24.07.637,ASRT_motor,2023.2.3,144.30056074923542,2024-12-13 12h05.22.133705 +0800,
,0,0,1,3,red,sequences/sub138_practice_sequence_00.csv,,,,,,,,,,,0,0,0,0,0,47,47,33,,,,,,,,,,,,,,,,,,,,,296.33840219999547,,,,,,,,,,,,,296.33310479999636,296.33840219999547,296.33840219999547,296.5404754000192,296.9443792999955,3,1,296.94494940000004,296.95009160001064,296.95009160001064,297.1582693000091,297.36684970001807,297.3608252000122,297.36086310000974,297.36684970001807,298.06133720002254,,,0.5986184000212234,None,,,,,,,,,,,,,,,,,,,,,,,,,,,,,,,,,,,,,,,,,,,,,,,,,,,,,,,,,,,,,sub138,motor,1,0,2024-12-13_11h24.07.637,ASRT_motor,2023.2.3,144.30056074923542,2024-12-13 12h05.22.133705 +0800,
,1,90,2,2,red,sequences/sub138_practice_sequence_00.csv,,,,,,,,,,,0,0,0,0,0,48,48,22,,,,,,,,,,,,,,,,,,,,,298.06774060000316,,,,,,,,,,,,,298.06171130001894,298.06774060000316,298.06774060000316,298.2696608999977,298.70993559999624,2,1,298.7105215000047,298.7167306000192,298.7167306000192,298.9223933000176,299.1309567000135,299.12484180001775,299.12487570001394,299.1309567000135,299.82559839999885,,,0.6379202999814879,None,,,,,,,,,,,,,,,,,,,,,,,,,,,,,,,,,,,,,,,,,,,,,,,,,,,,,,,,,,,,,sub138,motor,1,0,2024-12-13_11h24.07.637,ASRT_motor,2023.2.3,144.30056074923542,2024-12-13 12h05.22.133705 +0800,
,1,90,2,2,red,sequences/sub138_practice_sequence_00.csv,,,,,,,,,,,0,0,0,0,0,49,49,11,,,,,,,,,,,,,,,,,,,,,299.83378350001294,,,,,,,,,,,,,299.8263014999975,299.83378350001294,299.83378350001294,300.03333910001675,300.4034984000027,2,1,300.4039380000031,300.40850700001465,300.40850700001465,300.61662850002176,300.8247815000068,300.81961740000406,300.81966190002277,300.8247815000068,301.5204507000162,301.526139900001,,0.5666035999893211,None,,,,,,,,,,,,,,,,,,,,,,,,,,,,,,,,,,,,,,,,,,,,,,,,,,,,,,,,,,,,,sub138,motor,1,0,2024-12-13_11h24.07.637,ASRT_motor,2023.2.3,144.30056074923542,2024-12-13 12h05.22.133705 +0800,
,0,0,1,3,red,sequences/sub138_practice_sequence_00.csv,,,,,,,,,,,0,0,0,0,0,50,50,12,,,,,,,,,,,,,,,,,,,,,301.526139900001,,,,,,,,,,,,,301.5210364999948,301.526139900001,301.526139900001,301.7278118999966,302.22328770000604,3,1,302.22422659999575,302.2319367000018,302.2319367000018,302.43598060001386,302.64560800002073,302.64102249999996,302.64105669999844,302.64560800002073,303.34053240000503,303.3465846000181,,0.6903351000219118,None,,,,,,,,,,,,,,,,,,,,,,,,,,,,,,,,,,,,,,,,,,,,,,,,,,,,,,,,,,,,,sub138,motor,1,0,2024-12-13_11h24.07.637,ASRT_motor,2023.2.3,144.30056074923542,2024-12-13 12h05.22.133705 +0800,
,1,90,2,2,red,sequences/sub138_practice_sequence_00.csv,,,,,,,,,,,0,0,0,0,0,51,51,76,,,,,,,,,,,,,,,,,,,,,303.3465846000181,,,,,,,,,,,,,303.3410888000217,303.3465846000181,303.3465846000181,303.5475510999968,303.87600940000266,2,1,303.87672890000977,303.8829359000083,303.8829359000083,304.08881230000407,304.2970783000055,304.2915333000128,304.29157440000563,304.2970783000055,304.99178890002077,,,0.5237428000255022,None,,,,,,,,,,,,,,,,,,,,,,,,,,,,,,,,,,,,,,,,,,,,,,,,,,,,,,,,,,,,,sub138,motor,1,0,2024-12-13_11h24.07.637,ASRT_motor,2023.2.3,144.30056074923542,2024-12-13 12h05.22.133705 +0800,
,2,180,3,1,red,sequences/sub138_practice_sequence_00.csv,,,,,,,,,,,0,0,0,0,0,52,52,55,,,,,,,,,,,,,,,,,,,,,304.99849280001945,,,,,,,,,,,,,304.99224039999535,304.99849280001945,304.99849280001945,305.19998910001596,305.4306678000139,2,0,305.4311561000068,305.4415835000109,305.4415835000109,305.6449279000226,305.85304620000534,305.846541100007,305.84656710000127,305.85304620000534,306.54749120000633,,,0.4255129999946803,None,,,,,,,,,,,,,,,,,,,,,,,,,,,,,,,,,,,,,,,,,,,,,,,,,,,,,,,,,,,,,sub138,motor,1,0,2024-12-13_11h24.07.637,ASRT_motor,2023.2.3,144.30056074923542,2024-12-13 12h05.22.133705 +0800,
,3,270,0,4,red,sequences/sub138_practice_sequence_00.csv,,,,,,,,,,,0,0,0,0,0,53,53,29,,,,,,,,,,,,,,,,,,,,,306.55384810001124,,,,,,,,,,,,,306.5479101999954,306.55384810001124,306.55384810001124,306.75507919999654,307.250129299995,4,1,307.25073210001574,307.25772049999796,307.25772049999796,307.4646041000087,307.67213900000206,307.66613940001116,307.6662333999993,307.67213900000206,308.3667221000069,,,0.6896482000011019,None,,,,,,,,,,,,,,,,,,,,,,,,,,,,,,,,,,,,,,,,,,,,,,,,,,,,,,,,,,,,,sub138,motor,1,0,2024-12-13_11h24.07.637,ASRT_motor,2023.2.3,144.30056074923542,2024-12-13 12h05.22.133705 +0800,
,3,270,0,4,red,sequences/sub138_practice_sequence_00.csv,,,,,,,,,,,0,0,0,0,0,54,54,8,,,,,,,,,,,,,,,,,,,,,308.373399300006,,,,,,,,,,,,,308.3672765000083,308.373399300006,308.373399300006,308.57495440001367,309.3670199000044,None,0,309.3675637000124,309.37971930002095,309.37971930002095,309.581579300022,309.78992310000467,309.7837911999959,309.7838109000004,309.78992310000467,310.4847998000041,,,,,,,,,,,,,,,,,,,,,,,,,,,,,,,,,,,,,,,,,,,,,,,,,,,,,,,,,,,,,,,,,sub138,motor,1,0,2024-12-13_11h24.07.637,ASRT_motor,2023.2.3,144.30056074923542,2024-12-13 12h05.22.133705 +0800,
,1,90,2,2,red,sequences/sub138_practice_sequence_00.csv,,,,,,,,,,,0,0,0,0,0,55,55,84,,,,,,,,,,,,,,,,,,,,,310.49125799999456,,,,,,,,,,,,,310.4853615000029,310.49125799999456,310.49125799999456,310.6931375999993,311.18256390001625,2,1,311.1833958000061,311.1898334000143,311.1898334000143,311.39448020001873,311.60254740001983,311.5968342999986,311.5968797999958,311.60254740001983,312.2971619000018,,,0.6886750000121538,None,,,,,,,,,,,,,,,,,,,,,,,,,,,,,,,,,,,,,,,,,,,,,,,,,,,,,,,,,,,,,sub138,motor,1,0,2024-12-13_11h24.07.637,ASRT_motor,2023.2.3,144.30056074923542,2024-12-13 12h05.22.133705 +0800,
,3,270,0,4,red,sequences/sub138_practice_sequence_00.csv,,,,,,,,,,,0,0,0,0,0,56,56,4,,,,,,,,,,,,,,,,,,,,,312.30396089999704,,,,,,,,,,,,,312.2979596000223,312.30396089999704,312.30396089999704,312.50534260002314,312.81219690002035,4,1,312.81281659999513,312.81755880001583,312.81755880001583,313.0261937000032,313.23454180001863,313.22881930001313,313.22885340001085,313.23454180001863,313.9291758000036,,,0.5039032999775372,None,,,,,,,,,,,,,,,,,,,,,,,,,,,,,,,,,,,,,,,,,,,,,,,,,,,,,,,,,,,,,sub138,motor,1,0,2024-12-13_11h24.07.637,ASRT_motor,2023.2.3,144.30056074923542,2024-12-13 12h05.22.133705 +0800,
,1,90,2,2,red,sequences/sub138_practice_sequence_00.csv,,,,,,,,,,,0,0,0,0,0,57,57,1,,,,,,,,,,,,,,,,,,,,,313.9365660000185,,,,,,,,,,,,,313.9297281000181,313.9365660000185,313.9365660000185,314.13750490001985,314.7088247000065,2,1,314.70938760001445,314.71489230002044,314.71489230002044,314.92163270001765,315.13100439999835,315.1251501000079,315.12520120001864,315.13100439999835,315.82533140000305,315.83227199999965,,0.7668944000033662,None,,,,,,,,,,,,,,,,,,,,,,,,,,,,,,,,,,,,,,,,,,,,,,,,,,,,,,,,,,,,,sub138,motor,1,0,2024-12-13_11h24.07.637,ASRT_motor,2023.2.3,144.30056074923542,2024-12-13 12h05.22.133705 +0800,
,1,90,2,2,red,sequences/sub138_practice_sequence_00.csv,,,,,,,,,,,0,0,0,0,0,58,58,67,,,,,,,,,,,,,,,,,,,,,315.83227199999965,,,,,,,,,,,,,315.82571659999667,315.83227199999965,315.83227199999965,316.0327680000046,316.3963575999951,2,1,316.39716310001677,316.4019230999984,316.4019230999984,316.6094474999991,316.8176075000083,316.81144560000394,316.81147770001553,316.8176075000083,317.5123935000156,,,0.5610587999981362,None,,,,,,,,,,,,,,,,,,,,,,,,,,,,,,,,,,,,,,,,,,,,,,,,,,,,,,,,,,,,,sub138,motor,1,0,2024-12-13_11h24.07.637,ASRT_motor,2023.2.3,144.30056074923542,2024-12-13 12h05.22.133705 +0800,
,0,0,1,3,red,sequences/sub138_practice_sequence_00.csv,,,,,,,,,,,0,0,0,0,0,59,59,45,,,,,,,,,,,,,,,,,,,,,317.51881860001595,,,,,,,,,,,,,317.5129575000028,317.51881860001595,317.51881860001595,317.720596500003,318.19470130000263,3,1,318.1952504000219,318.2007010000234,318.2007010000234,318.40783300000476,318.6162382000184,318.61072460000287,318.6107656999957,318.6162382000184,319.31152529999963,,,0.6699680000019725,None,,,,,,,,,,,,,,,,,,,,,,,,,,,,,,,,,,,,,,,,,,,,,,,,,,,,,,,,,,,,,sub138,motor,1,0,2024-12-13_11h24.07.637,ASRT_motor,2023.2.3,144.30056074923542,2024-12-13 12h05.22.133705 +0800,
,2,180,3,1,red,sequences/sub138_practice_sequence_00.csv,,,,,,,,,,,0,0,0,0,0,60,60,42,,,,,,,,,,,,,,,,,,,,,319.31976900002337,,,,,,,,,,,,,319.31218420001096,319.31976900002337,319.31976900002337,319.52551080001285,320.11156910000136,1,1,320.11218540000846,320.1183709000179,320.1183709000179,320.32471919999807,320.53289820000646,320.52716980001424,320.5272057999973,320.53289820000646,321.22793260001345,,,0.7858311000163667,None,,,,,,,,,,,,,,,,,,,,,,,,,,,,,,,,,,,,,,,,,,,,,,,,,,,,,,,,,,,,,sub138,motor,1,0,2024-12-13_11h24.07.637,ASRT_motor,2023.2.3,144.30056074923542,2024-12-13 12h05.22.133705 +0800,
,2,180,3,1,red,sequences/sub138_practice_sequence_00.csv,,,,,,,,,,,0,0,0,0,0,61,61,28,,,,,,,,,,,,,,,,,,,,,321.2340071000217,,,,,,,,,,,,,321.22871700001997,321.2340071000217,321.2340071000217,321.43567350000376,322.22789120001835,None,0,322.2283959000197,322.2407112000219,322.2407112000219,322.4432934000215,322.651038800017,322.64571380001144,322.64576030001626,322.651038800017,323.34628870000597,323.3520869000058,,,,,,,,,,,,,,,,,,,,,,,,,,,,,,,,,,,,,,,,,,,,,,,,,,,,,,,,,,,,,,,,sub138,motor,1,0,2024-12-13_11h24.07.637,ASRT_motor,2023.2.3,144.30056074923542,2024-12-13 12h05.22.133705 +0800,
,3,270,0,4,red,sequences/sub138_practice_sequence_00.csv,,,,,,,,,,,0,0,0,0,0,62,62,23,,,,,,,,,,,,,,,,,,,,,323.3520869000058,,,,,,,,,,,,,323.3468117000011,323.3520869000058,323.3520869000058,323.55366639999556,323.9587419000163,4,1,323.95945670001674,323.96809560002293,323.96809560002293,324.1718789000006,324.3802079000161,324.374180600018,324.3742142000119,324.3802079000161,325.0753346999991,,,0.6039375999826007,None,,,,,,,,,,,,,,,,,,,,,,,,,,,,,,,,,,,,,,,,,,,,,,,,,,,,,,,,,,,,,sub138,motor,1,0,2024-12-13_11h24.07.637,ASRT_motor,2023.2.3,144.30056074923542,2024-12-13 12h05.22.133705 +0800,
,3,270,0,4,red,sequences/sub138_practice_sequence_00.csv,,,,,,,,,,,0,0,0,0,0,63,63,60,,,,,,,,,,,,,,,,,,,,,325.08219129999634,,,,,,,,,,,,,325.0759665000078,325.08219129999634,325.08219129999634,325.2828248000005,325.5970390000148,4,1,325.59771250002086,325.60334450000664,325.60334450000664,325.81046520001837,326.01898000002257,326.01332660001935,326.01336360001005,326.01898000002257,326.7137144000153,,,0.5082149000081699,None,,,,,,,,,,,,,,,,,,,,,,,,,,,,,,,,,,,,,,,,,,,,,,,,,,,,,,,,,,,,,sub138,motor,1,0,2024-12-13_11h24.07.637,ASRT_motor,2023.2.3,144.30056074923542,2024-12-13 12h05.22.133705 +0800,
,2,180,3,1,red,sequences/sub138_practice_sequence_00.csv,,,,,,,,,,,0,0,0,0,0,64,64,61,,,,,,,,,,,,,,,,,,,,,326.72036330000265,,,,,,,,,,,,,326.71430469999905,326.72036330000265,326.72036330000265,326.9210757999972,327.4584584000113,1,1,327.4590966000105,327.46608090001973,327.46608090001973,327.6717612000066,327.8800827000232,327.87432640002226,327.87436810001964,327.8800827000232,328.5752652999945,,,0.7339329999813344,None,,,,,,,,,,,,,,,,,,,,,,,,,,,,,,,,,,,,,,,,,,,,,,,,,,,,,,,,,,,,,sub138,motor,1,0,2024-12-13_11h24.07.637,ASRT_motor,2023.2.3,144.30056074923542,2024-12-13 12h05.22.133705 +0800,
,2,180,3,1,red,sequences/sub138_practice_sequence_00.csv,,,,,,,,,,,0,0,0,0,0,65,65,81,,,,,,,,,,,,,,,,,,,,,328.58268620001036,,,,,,,,,,,,,328.5761951000022,328.58268620001036,328.58268620001036,328.78279389999807,329.1464528000215,1,1,329.14715070000966,329.15456090000225,329.15456090000225,329.3591684999992,329.5673700000043,329.56157340001664,329.56161060000886,329.5673700000043,330.2622728999995,,,0.5563159000012092,None,,,,,,,,,,,,,,,,,,,,,,,,,,,,,,,,,,,,,,,,,,,,,,,,,,,,,,,,,,,,,sub138,motor,1,0,2024-12-13_11h24.07.637,ASRT_motor,2023.2.3,144.30056074923542,2024-12-13 12h05.22.133705 +0800,
,3,270,0,4,red,sequences/sub138_practice_sequence_00.csv,,,,,,,,,,,0,0,0,0,0,66,66,17,,,,,,,,,,,,,,,,,,,,,330.2687065000064,,,,,,,,,,,,,330.26277990001836,330.2687065000064,330.2687065000064,330.4704227000184,330.8128927000216,4,1,330.813433000003,330.82013279999956,330.82013279999956,331.0260974999983,331.23417559999507,331.2282359999954,331.2282644000079,331.23417559999507,331.92893160000676,,,0.5377942000050098,None,,,,,,,,,,,,,,,,,,,,,,,,,,,,,,,,,,,,,,,,,,,,,,,,,,,,,,,,,,,,,sub138,motor,1,0,2024-12-13_11h24.07.637,ASRT_motor,2023.2.3,144.30056074923542,2024-12-13 12h05.22.133705 +0800,
,3,270,0,4,red,sequences/sub138_practice_sequence_00.csv,,,,,,,,,,,0,0,0,0,0,67,67,18,,,,,,,,,,,,,,,,,,,,,331.93510740000056,,,,,,,,,,,,,331.92948660001275,331.93510740000056,331.93510740000056,332.1368070000026,332.4307358000078,4,1,332.43172980000963,332.43884810002055,332.43884810002055,332.6437983000069,332.8518094000174,332.8460063000093,332.8460434000008,332.8518094000174,333.5471122000017,,,0.4884145999967586,None,,,,,,,,,,,,,,,,,,,,,,,,,,,,,,,,,,,,,,,,,,,,,,,,,,,,,,,,,,,,,sub138,motor,1,0,2024-12-13_11h24.07.637,ASRT_motor,2023.2.3,144.30056074923542,2024-12-13 12h05.22.133705 +0800,
,3,270,0,4,red,sequences/sub138_practice_sequence_00.csv,,,,,,,,,,,0,0,0,0,0,68,68,77,,,,,,,,,,,,,,,,,,,,,333.55362089999835,,,,,,,,,,,,,333.5476915000181,333.55362089999835,333.55362089999835,333.7548247000086,334.16811530000996,4,1,334.1688720000093,334.17635680001695,334.17635680001695,334.3798309999984,334.58835210002144,334.58241820000694,334.58245620000525,334.58835210002144,335.2827190000098,,,0.6120378999912646,None,,,,,,,,,,,,,,,,,,,,,,,,,,,,,,,,,,,,,,,,,,,,,,,,,,,,,,,,,,,,,sub138,motor,1,0,2024-12-13_11h24.07.637,ASRT_motor,2023.2.3,144.30056074923542,2024-12-13 12h05.22.133705 +0800,
,1,90,2,2,red,sequences/sub138_practice_sequence_00.csv,,,,,,,,,,,0,0,0,0,0,69,69,80,,,,,,,,,,,,,,,,,,,,,335.2892524000199,,,,,,,,,,,,,335.2833171999955,335.2892524000199,335.2892524000199,335.49088110000594,335.9448028000188,2,1,335.94538970000576,335.9526520000072,335.9526520000072,336.1576367999951,336.36596749999444,336.3603820000135,336.36042270000326,336.36596749999444,337.06124060001457,,,0.6490704000170808,None,,,,,,,,,,,,,,,,,,,,,,,,,,,,,,,,,,,,,,,,,,,,,,,,,,,,,,,,,,,,,sub138,motor,1,0,2024-12-13_11h24.07.637,ASRT_motor,2023.2.3,144.30056074923542,2024-12-13 12h05.22.133705 +0800,
,2,180,3,1,red,sequences/sub138_practice_sequence_00.csv,,,,,,,,,,,0,0,0,0,0,70,70,25,,,,,,,,,,,,,,,,,,,,,337.0675971000164,,,,,,,,,,,,,337.06176199999754,337.0675971000164,337.0675971000164,337.26870810001856,337.632735399995,2,0,337.63341520001995,337.64019310000003,337.64019310000003,337.8450690000027,338.0527978000173,338.0463223000115,338.0463402000023,338.0527978000173,338.748358700017,,,0.5572523000009824,None,,,,,,,,,,,,,,,,,,,,,,,,,,,,,,,,,,,,,,,,,,,,,,,,,,,,,,,,,,,,,sub138,motor,1,0,2024-12-13_11h24.07.637,ASRT_motor,2023.2.3,144.30056074923542,2024-12-13 12h05.22.133705 +0800,
,0,0,1,3,red,sequences/sub138_practice_sequence_00.csv,,,,,,,,,,,0,0,0,0,0,71,71,82,,,,,,,,,,,,,,,,,,,,,338.75558840000303,,,,,,,,,,,,,338.74916470001335,338.75558840000303,338.75558840000303,338.9561079000123,339.4031329000136,3,1,339.40372520001256,339.41140989999985,339.41140989999985,339.61618870001985,339.82394640002167,339.81855280001764,339.8185928000021,339.82394640002167,340.5188360000029,340.5251603000215,,0.6436414000054356,None,,,,,,,,,,,,,,,,,,,,,,,,,,,,,,,,,,,,,,,,,,,,,,,,,,,,,,,,,,,,,sub138,motor,1,0,2024-12-13_11h24.07.637,ASRT_motor,2023.2.3,144.30056074923542,2024-12-13 12h05.22.133705 +0800,
,1,90,2,2,red,sequences/sub138_practice_sequence_00.csv,,,,,,,,,,,0,0,0,0,0,72,72,75,,,,,,,,,,,,,,,,,,,,,340.5251603000215,,,,,,,,,,,,,340.5192081000132,340.5251603000215,340.5251603000215,340.7268903000222,341.1521642000007,2,1,341.15275290000136,341.15818080000463,341.15818080000463,341.3658369000186,341.57400150000467,341.56809590000194,341.5681231000053,341.57400150000467,342.26896560000023,,,0.6222576999862213,None,,,,,,,,,,,,,,,,,,,,,,,,,,,,,,,,,,,,,,,,,,,,,,,,,,,,,,,,,,,,,sub138,motor,1,0,2024-12-13_11h24.07.637,ASRT_motor,2023.2.3,144.30056074923542,2024-12-13 12h05.22.133705 +0800,
,2,180,3,1,red,sequences/sub138_practice_sequence_00.csv,,,,,,,,,,,0,0,0,0,0,73,73,3,,,,,,,,,,,,,,,,,,,,,342.27528620001976,,,,,,,,,,,,,342.2695243000053,342.27528620001976,342.27528620001976,342.477048700006,343.0765734000015,1,1,343.0773186000006,343.08427330001723,343.08427330001723,343.28974590002326,343.4978936999978,343.4920005000022,343.4920397000096,343.4978936999978,344.1922970000014,,,0.7971434000064619,None,,,,,,,,,,,,,,,,,,,,,,,,,,,,,,,,,,,,,,,,,,,,,,,,,,,,,,,,,,,,,sub138,motor,1,0,2024-12-13_11h24.07.637,ASRT_motor,2023.2.3,144.30056074923542,2024-12-13 12h05.22.133705 +0800,
,3,270,0,4,red,sequences/sub138_practice_sequence_00.csv,,,,,,,,,,,0,0,0,0,0,74,74,27,,,,,,,,,,,,,,,,,,,,,344.19908250001026,,,,,,,,,,,,,344.19287310002255,344.19908250001026,344.19908250001026,344.4003819000209,344.83902350001154,4,1,344.839655400021,344.8443189999962,344.8443189999962,345.0531856000016,345.26159440001356,345.25554179999745,345.25558420000016,345.26159440001356,345.9563247000042,,,0.6353682999906596,None,,,,,,,,,,,,,,,,,,,,,,,,,,,,,,,,,,,,,,,,,,,,,,,,,,,,,,,,,,,,,sub138,motor,1,0,2024-12-13_11h24.07.637,ASRT_motor,2023.2.3,144.30056074923542,2024-12-13 12h05.22.133705 +0800,
