initial_random_seq_files,orientation_index,orientation_degrees,correct_answer_index,correct_answer_direction,arrow_color,practice_seq_files,learning_seq_files,motor_testing_seq_files,init_random_block.thisRepN,init_random_block.thisTrialN,init_random_block.thisN,init_random_block.thisIndex,init_random_trials.thisRepN,init_random_trials.thisTrialN,init_random_trials.thisN,init_random_trials.thisIndex,practice_blocks.thisRepN,practice_blocks.thisTrialN,practice_blocks.thisN,practice_blocks.thisIndex,practice_trials.thisRepN,practice_trials.thisTrialN,practice_trials.thisN,practice_trials.thisIndex,learning_trials.thisRepN,learning_trials.thisTrialN,learning_trials.thisN,learning_trials.thisIndex,learning_loop.thisRepN,learning_loop.thisTrialN,learning_loop.thisN,learning_loop.thisIndex,trials.thisRepN,trials.thisTrialN,trials.thisN,trials.thisIndex,motor_testing_trials.thisRepN,motor_testing_trials.thisTrialN,motor_testing_trials.thisN,motor_testing_trials.thisIndex,motor_testing_loop.thisRepN,motor_testing_loop.thisTrialN,motor_testing_loop.thisN,motor_testing_loop.thisIndex,thisRow.t,notes,welcomescreen.started,spaceship.started,welcometext.started,welcome_end.started,welcomescreen.stopped,welcome_end.keys,welcome_end.rt,welcome_end.duration,pre_section.started,fixation_init.started,pre_section.stopped,trial.started,arrowhead.started,key_resp.started,arrowhead.stopped,trial.stopped,key_resp.keys,key_resp.corr,key_resp.rt,key_resp.duration,fixation_feedback.started,cross.started,feedback_text.started,cross.stopped,feedback_text.stopped,fixation_feedback.stopped,RSI.started,text_2.started,RSI.stopped,text_2.stopped,post_section.started,feedback_post_section.started,key_resp_4.started,post_section.stopped,key_resp_4.keys,key_resp_4.rt,key_resp_4.duration,pratice_instruction.started,spaceship_rotated.started,rotation_instruction.started,key_resp_2.started,pratice_instruction.stopped,key_resp_2.keys,key_resp_2.rt,key_resp_2.duration,fixation_init.stopped,learning_instruction.started,spaceship_rotated01.started,rotation_instruction01.started,key_resp_02.started,learning_instruction.stopped,key_resp_02.keys,key_resp_02.rt,key_resp_02.duration,seqreport_instruction.started,seqreport_instruction_text.started,seqreport_instruction_key.started,seqreport_instruction.stopped,seqreport_instruction_key.keys,seqreport_instruction_key.rt,seqreport_instruction_key.duration,seqreport.started,seq_report_key.started,seqreport.stopped,seq_report_key.keys,seq_report_key.rt,seq_report_key.duration,seqarrow.started,arrow_report.started,arrow_report.stopped,seqarrow.stopped,motor_testing_instruction.started,spaceship3.started,motor_testing_instruction_text.started,key_resp_3.started,motor_testing_instruction.stopped,key_resp_3.keys,key_resp_3.rt,key_resp_3.duration,fixation.started,cross_2.started,cross_2.stopped,fixation.stopped,thankyouscreen.started,text.started,key_resp_6.started,thankyouscreen.stopped,key_resp_6.keys,key_resp_6.rt,key_resp_6.duration,participant,learning_type,seqID,debug,date,expName,psychopyVersion,frameRate,expStart,
,,,,,,,,,,,,,,,,,,,,,,,,,,,,,,,,,,,,,,,,,,,,,,,0.004498000023886561,0.016177300014533103,0.016177300014533103,0.016177300014533103,3.76175589999184,space,3.741468199994415,None,,,,,,,,,,,,,,,,,,,,,,,,,,,,,,,,,,,,,,,,,,,,,,,,,,,,,,,,,,,,,,,,,,,,,,,,,,,,,,,,,,,sub139,motor,3,0,2024-12-20_13h46.09.441,ASRT_motor,2023.2.3,141.52639051660123,2024-12-20 13h59.12.588288 +0800,
sequences/sub139_initial_random.csv,2,180,2,2,red,,,,0,0,0,0,0,0,0,0,,,,,,,,,,,,,,,,,,,,,,,,,,,,,4.787286199978553,,,,,,,,,,3.8108551999321207,3.823460099985823,4.766803400008939,4.78353779995814,4.787286199978553,4.787286199978553,4.989014399936423,5.275558399967849,2,1,0.48175769997760653,None,5.276658299961127,5.286738399998285,5.286738399998285,5.509369199979119,5.717956900014542,5.711828600033186,5.711863599950448,5.717956900014542,6.413455900037661,,,,,,,,,,,,,,,,,,,,,,,,,,,,,,,,,,,,,,,,,,,,,,,,,,,,,,,,,,,,,,sub139,motor,3,0,2024-12-20_13h46.09.441,ASRT_motor,2023.2.3,141.52639051660123,2024-12-20 13h59.12.588288 +0800,
sequences/sub139_initial_random.csv,1,90,1,3,red,,,,0,0,0,0,0,1,1,1,,,,,,,,,,,,,,,,,,,,,,,,,,,,,6.41964109998662,,,,,,,,,,,,,6.414218800025992,6.41964109998662,6.41964109998662,6.6210220999782905,6.761245199944824,3,1,0.3381454999325797,None,6.761711400002241,6.7670907999854535,6.7670907999854535,6.974626800045371,7.183432699996047,7.177397900028154,7.177435399964452,7.183432699996047,7.878006999962963,,,,,,,,,,,,,,,,,,,,,,,,,,,,,,,,,,,,,,,,,,,,,,,,,,,,,,,,,,,,,,sub139,motor,3,0,2024-12-20_13h46.09.441,ASRT_motor,2023.2.3,141.52639051660123,2024-12-20 13h59.12.588288 +0800,
sequences/sub139_initial_random.csv,0,0,0,4,red,,,,0,0,0,0,0,2,2,2,,,,,,,,,,,,,,,,,,,,,,,,,,,,,7.885520900017582,,,,,,,,,,,,,7.878481399966404,7.885520900017582,7.885520900017582,8.087644099956378,8.261990800034255,4,1,0.3686129000270739,None,8.262487199972384,8.266328700003214,8.266328700003214,8.474746700027026,8.682909099967219,8.676504599978216,8.676521999994293,8.682909099967219,9.377980399993248,,,,,,,,,,,,,,,,,,,,,,,,,,,,,,,,,,,,,,,,,,,,,,,,,,,,,,,,,,,,,,sub139,motor,3,0,2024-12-20_13h46.09.441,ASRT_motor,2023.2.3,141.52639051660123,2024-12-20 13h59.12.588288 +0800,
sequences/sub139_initial_random.csv,1,90,1,3,red,,,,0,0,0,0,0,3,3,3,,,,,,,,,,,,,,,,,,,,,,,,,,,,,9.385849799960852,,,,,,,,,,,,,9.378646199940704,9.385849799960852,9.385849799960852,9.586103499983437,9.733684199978597,3,1,0.34415969997644424,None,9.735315099940635,9.740664200042374,9.740664200042374,9.946825499995612,10.15529849997256,10.148616299964488,10.14863960002549,10.15529849997256,10.850545999943279,,,,,,,,,,,,,,,,,,,,,,,,,,,,,,,,,,,,,,,,,,,,,,,,,,,,,,,,,,,,,,sub139,motor,3,0,2024-12-20_13h46.09.441,ASRT_motor,2023.2.3,141.52639051660123,2024-12-20 13h59.12.588288 +0800,
sequences/sub139_initial_random.csv,0,0,0,4,red,,,,0,0,0,0,0,4,4,4,,,,,,,,,,,,,,,,,,,,,,,,,,,,,10.85754190001171,,,,,,,,,,,,,10.851124500040896,10.85754190001171,10.85754190001171,11.059126900043339,11.17065400001593,4,1,0.3060300999786705,None,11.171079099993221,11.177123000030406,11.177123000030406,11.384726600022987,11.592885099933483,11.586936800042167,11.586955399950966,11.592885099933483,12.287424399983138,,,,,,,,,,,,,,,,,,,,,,,,,,,,,,,,,,,,,,,,,,,,,,,,,,,,,,,,,,,,,,sub139,motor,3,0,2024-12-20_13h46.09.441,ASRT_motor,2023.2.3,141.52639051660123,2024-12-20 13h59.12.588288 +0800,
sequences/sub139_initial_random.csv,2,180,2,2,red,,,,0,0,0,0,0,5,5,5,,,,,,,,,,,,,,,,,,,,,,,,,,,,,12.293981399969198,,,,,,,,,,,,,12.28823189996183,12.293981399969198,12.293981399969198,12.495891600032337,12.713341400027275,2,1,0.4153430999722332,None,12.714031800045632,12.7215770999901,12.7215770999901,12.926128300023265,13.134584499988705,13.128548700013198,13.128585299942642,13.134584499988705,13.829149099998176,,,,,,,,,,,,,,,,,,,,,,,,,,,,,,,,,,,,,,,,,,,,,,,,,,,,,,,,,,,,,,sub139,motor,3,0,2024-12-20_13h46.09.441,ASRT_motor,2023.2.3,141.52639051660123,2024-12-20 13h59.12.588288 +0800,
sequences/sub139_initial_random.csv,0,0,0,4,red,,,,0,0,0,0,0,6,6,6,,,,,,,,,,,,,,,,,,,,,,,,,,,,,13.835920399986207,,,,,,,,,,,,,13.829735600040294,13.835920399986207,13.835920399986207,14.037934600026347,14.123325199936517,4,1,0.2844540000660345,None,14.12399779993575,14.131085900007747,14.131085900007747,14.335549199953675,14.5440655000275,14.53764809994027,14.537670099991374,14.5440655000275,15.23919630004093,,,,,,,,,,,,,,,,,,,,,,,,,,,,,,,,,,,,,,,,,,,,,,,,,,,,,,,,,,,,,,sub139,motor,3,0,2024-12-20_13h46.09.441,ASRT_motor,2023.2.3,141.52639051660123,2024-12-20 13h59.12.588288 +0800,
sequences/sub139_initial_random.csv,0,0,0,4,red,,,,0,0,0,0,0,7,7,7,,,,,,,,,,,,,,,,,,,,,,,,,,,,,15.246360799996182,,,,,,,,,,,,,15.240103099960834,15.246360799996182,15.246360799996182,15.447145199985243,15.56920100003481,4,1,0.3163646999746561,None,15.5697838999331,15.575555799994618,15.575555799994618,15.78007780003827,15.988952999934554,15.982788300025277,15.982821500045247,15.988952999934554,16.683168499963358,,,,,,,,,,,,,,,,,,,,,,,,,,,,,,,,,,,,,,,,,,,,,,,,,,,,,,,,,,,,,,sub139,motor,3,0,2024-12-20_13h46.09.441,ASRT_motor,2023.2.3,141.52639051660123,2024-12-20 13h59.12.588288 +0800,
sequences/sub139_initial_random.csv,2,180,2,2,red,,,,0,0,0,0,0,8,8,8,,,,,,,,,,,,,,,,,,,,,,,,,,,,,16.690742200007662,,,,,,,,,,,,,16.683880500029773,16.690742200007662,16.690742200007662,16.891480799997225,17.04641700000502,2,1,0.34912979998625815,None,17.047269999980927,17.054863199940883,17.054863199940883,17.259611999965273,17.467222700011916,17.46096860000398,17.460987700033,17.467222700011916,18.161992899957113,,,,,,,,,,,,,,,,,,,,,,,,,,,,,,,,,,,,,,,,,,,,,,,,,,,,,,,,,,,,,,sub139,motor,3,0,2024-12-20_13h46.09.441,ASRT_motor,2023.2.3,141.52639051660123,2024-12-20 13h59.12.588288 +0800,
sequences/sub139_initial_random.csv,3,270,3,1,red,,,,0,0,0,0,0,9,9,9,,,,,,,,,,,,,,,,,,,,,,,,,,,,,18.169111200026236,,,,,,,,,,,,,18.162395399995148,18.169111200026236,18.169111200026236,18.370887199998833,18.483218800043687,1,1,0.30909929994959384,None,18.4839225000469,18.488376999972388,18.488376999972388,18.69686869997531,18.90518590004649,18.89948599995114,18.899534399970435,18.90518590004649,19.600172100006603,,,,,,,,,,,,,,,,,,,,,,,,,,,,,,,,,,,,,,,,,,,,,,,,,,,,,,,,,,,,,,sub139,motor,3,0,2024-12-20_13h46.09.441,ASRT_motor,2023.2.3,141.52639051660123,2024-12-20 13h59.12.588288 +0800,
sequences/sub139_initial_random.csv,0,0,0,4,red,,,,0,0,0,0,0,10,10,10,,,,,,,,,,,,,,,,,,,,,,,,,,,,,19.606359599973075,,,,,,,,,,,,,19.600805699941702,19.606359599973075,19.606359599973075,19.807985699968413,19.99063280003611,4,1,0.37731420004274696,None,19.991394700016826,19.99707090004813,19.99707090004813,20.203784800018184,20.41180090000853,20.40538040001411,20.405401999945752,20.41180090000853,21.108002900029533,,,,,,,,,,,,,,,,,,,,,,,,,,,,,,,,,,,,,,,,,,,,,,,,,,,,,,,,,,,,,,sub139,motor,3,0,2024-12-20_13h46.09.441,ASRT_motor,2023.2.3,141.52639051660123,2024-12-20 13h59.12.588288 +0800,
sequences/sub139_initial_random.csv,2,180,2,2,red,,,,0,0,0,0,0,11,11,11,,,,,,,,,,,,,,,,,,,,,,,,,,,,,21.115248800022528,,,,,,,,,,,,,21.108867199975066,21.115248800022528,21.115248800022528,21.314954399946146,21.441362699959427,2,1,0.32074659992940724,None,21.442062499932945,21.446787699940614,21.446787699940614,21.655119000002742,21.863445700029843,21.85798710002564,21.85802699998021,21.863445700029843,22.55823219998274,,,,,,,,,,,,,,,,,,,,,,,,,,,,,,,,,,,,,,,,,,,,,,,,,,,,,,,,,,,,,,sub139,motor,3,0,2024-12-20_13h46.09.441,ASRT_motor,2023.2.3,141.52639051660123,2024-12-20 13h59.12.588288 +0800,
sequences/sub139_initial_random.csv,2,180,2,2,red,,,,0,0,0,0,0,12,12,12,,,,,,,,,,,,,,,,,,,,,,,,,,,,,22.564812200027518,,,,,,,,,,,,,22.558812199975364,22.564812200027518,22.564812200027518,22.766627299948595,22.930535199935548,2,1,0.36162940005306154,None,22.931257299962454,22.938750399975106,22.938750399975106,23.141021899995394,23.34965240000747,23.34420799999498,23.344253999996,23.34965240000747,24.044998400029726,24.051128500024788,,,,,,,,,,,,,,,,,,,,,,,,,,,,,,,,,,,,,,,,,,,,,,,,,,,,,,,,,,,,,sub139,motor,3,0,2024-12-20_13h46.09.441,ASRT_motor,2023.2.3,141.52639051660123,2024-12-20 13h59.12.588288 +0800,
sequences/sub139_initial_random.csv,0,0,0,4,red,,,,0,0,0,0,0,13,13,13,,,,,,,,,,,,,,,,,,,,,,,,,,,,,24.051128500024788,,,,,,,,,,,,,24.04553370003123,24.051128500024788,24.051128500024788,24.252636299934238,24.386659299954772,4,1,0.3296089000068605,None,24.38720410002861,24.392097200034186,24.392097200034186,24.599509099964052,24.807550700032152,24.80392249999568,24.803941300022416,24.807550700032152,25.502767199999653,25.50982160004787,,,,,,,,,,,,,,,,,,,,,,,,,,,,,,,,,,,,,,,,,,,,,,,,,,,,,,,,,,,,,sub139,motor,3,0,2024-12-20_13h46.09.441,ASRT_motor,2023.2.3,141.52639051660123,2024-12-20 13h59.12.588288 +0800,
sequences/sub139_initial_random.csv,3,270,3,1,red,,,,0,0,0,0,0,14,14,14,,,,,,,,,,,,,,,,,,,,,,,,,,,,,25.50982160004787,,,,,,,,,,,,,25.503578100004233,25.50982160004787,25.50982160004787,25.710728400037624,25.858941999962553,1,1,0.3453862000023946,None,25.85963039996568,25.865336399991065,25.865336399991065,26.071839999989606,26.28344939998351,26.276173699996434,26.27624209993519,26.28344939998351,26.981143899960443,,,,,,,,,,,,,,,,,,,,,,,,,,,,,,,,,,,,,,,,,,,,,,,,,,,,,,,,,,,,,,sub139,motor,3,0,2024-12-20_13h46.09.441,ASRT_motor,2023.2.3,141.52639051660123,2024-12-20 13h59.12.588288 +0800,
sequences/sub139_initial_random.csv,0,0,0,4,red,,,,0,0,0,0,0,15,15,15,,,,,,,,,,,,,,,,,,,,,,,,,,,,,26.98875609994866,,,,,,,,,,,,,26.981382100027986,26.98875609994866,26.98875609994866,27.189622099976987,27.271243099938147,4,1,0.27632429997902364,None,27.27211969997734,27.27892079995945,27.27892079995945,27.48168169998098,27.68942359997891,27.68294930004049,27.682965300045907,27.68942359997891,28.3844086000463,,,,,,,,,,,,,,,,,,,,,,,,,,,,,,,,,,,,,,,,,,,,,,,,,,,,,,,,,,,,,,sub139,motor,3,0,2024-12-20_13h46.09.441,ASRT_motor,2023.2.3,141.52639051660123,2024-12-20 13h59.12.588288 +0800,
sequences/sub139_initial_random.csv,1,90,1,3,red,,,,0,0,0,0,0,16,16,16,,,,,,,,,,,,,,,,,,,,,,,,,,,,,28.391579999937676,,,,,,,,,,,,,28.38493549998384,28.391579999937676,28.391579999937676,28.593987899948843,28.69765740004368,3,1,0.30392650002613664,None,28.69792339997366,28.7035400000168,28.7035400000168,28.912009999970905,29.122712400043383,29.11397319997195,29.113999599940144,29.122712400043383,29.81647920003161,,,,,,,,,,,,,,,,,,,,,,,,,,,,,,,,,,,,,,,,,,,,,,,,,,,,,,,,,,,,,,sub139,motor,3,0,2024-12-20_13h46.09.441,ASRT_motor,2023.2.3,141.52639051660123,2024-12-20 13h59.12.588288 +0800,
sequences/sub139_initial_random.csv,0,0,0,4,red,,,,0,0,0,0,0,17,17,17,,,,,,,,,,,,,,,,,,,,,,,,,,,,,29.825852200039662,,,,,,,,,,,,,29.817866099998355,29.825852200039662,29.825852200039662,30.029887899989262,30.13135110004805,4,1,0.3019547000294551,None,30.1319705999922,30.13872199994512,30.13872199994512,30.34228959993925,30.550490699941292,30.544254799955525,30.54427549999673,30.550490699941292,31.24525719997473,,,,,,,,,,,,,,,,,,,,,,,,,,,,,,,,,,,,,,,,,,,,,,,,,,,,,,,,,,,,,,sub139,motor,3,0,2024-12-20_13h46.09.441,ASRT_motor,2023.2.3,141.52639051660123,2024-12-20 13h59.12.588288 +0800,
sequences/sub139_initial_random.csv,2,180,2,2,red,,,,0,0,0,0,0,18,18,18,,,,,,,,,,,,,,,,,,,,,,,,,,,,,31.25241159996949,,,,,,,,,,,,,31.24577739997767,31.25241159996949,31.25241159996949,31.453465800033882,31.57361199997831,1,0,0.3146952000679448,None,31.574221199960448,31.583361199940555,31.583361199940555,31.7871826000046,31.995234500034712,31.989041200024076,31.98906709998846,31.995234500034712,32.690087600029074,,,,,,,,,,,,,,,,,,,,,,,,,,,,,,,,,,,,,,,,,,,,,,,,,,,,,,,,,,,,,,sub139,motor,3,0,2024-12-20_13h46.09.441,ASRT_motor,2023.2.3,141.52639051660123,2024-12-20 13h59.12.588288 +0800,
sequences/sub139_initial_random.csv,1,90,1,3,red,,,,0,0,0,0,0,19,19,19,,,,,,,,,,,,,,,,,,,,,,,,,,,,,32.69630139996298,,,,,,,,,,,,,32.69076549995225,32.69630139996298,32.69630139996298,32.898290700046346,33.08316909999121,3,1,0.3829313999740407,None,33.08398680004757,33.09272840002086,33.09272840002086,33.29369930003304,33.502078699995764,33.495187300024554,33.495205600047484,33.502078699995764,34.19709989998955,,,,,,,,,,,,,,,,,,,,,,,,,,,,,,,,,,,,,,,,,,,,,,,,,,,,,,,,,,,,,,sub139,motor,3,0,2024-12-20_13h46.09.441,ASRT_motor,2023.2.3,141.52639051660123,2024-12-20 13h59.12.588288 +0800,
sequences/sub139_initial_random.csv,0,0,0,4,red,,,,0,0,0,0,0,20,20,20,,,,,,,,,,,,,,,,,,,,,,,,,,,,,34.20598690002225,,,,,,,,,,,,,34.19801809999626,34.20598690002225,34.20598690002225,34.41225059994031,34.51873769995291,4,1,0.30643780005630106,None,34.51943139999639,34.52967339998577,34.52967339998577,34.73102940001991,34.939032200025395,34.93278969998937,34.93280579999555,34.939032200025395,35.63438740000129,,,,,,,,,,,,,,,,,,,,,,,,,,,,,,,,,,,,,,,,,,,,,,,,,,,,,,,,,,,,,,sub139,motor,3,0,2024-12-20_13h46.09.441,ASRT_motor,2023.2.3,141.52639051660123,2024-12-20 13h59.12.588288 +0800,
sequences/sub139_initial_random.csv,2,180,2,2,red,,,,0,0,0,0,0,21,21,21,,,,,,,,,,,,,,,,,,,,,,,,,,,,,35.64070350001566,,,,,,,,,,,,,35.63489149999805,35.64070350001566,35.64070350001566,35.84251740004402,36.01302880002186,2,1,0.36869939998723567,None,36.013611100031994,36.01958239998203,36.01958239998203,36.22391559998505,36.433443199959584,36.426538400002755,36.426570200012065,36.433443199959584,37.12731979996897,,,,,,,,,,,,,,,,,,,,,,,,,,,,,,,,,,,,,,,,,,,,,,,,,,,,,,,,,,,,,,sub139,motor,3,0,2024-12-20_13h46.09.441,ASRT_motor,2023.2.3,141.52639051660123,2024-12-20 13h59.12.588288 +0800,
sequences/sub139_initial_random.csv,0,0,0,4,red,,,,0,0,0,0,0,22,22,22,,,,,,,,,,,,,,,,,,,,,,,,,,,,,37.13386880001053,,,,,,,,,,,,,37.12783909996506,37.13386880001053,37.13386880001053,37.33568479993846,37.489747699932195,4,1,0.34861939994152635,None,37.490285599953495,37.4952661000425,37.4952661000425,37.70346430002246,37.911511400016025,37.90565550001338,37.90573580004275,37.911511400016025,38.6061994000338,,,,,,,,,,,,,,,,,,,,,,,,,,,,,,,,,,,,,,,,,,,,,,,,,,,,,,,,,,,,,,sub139,motor,3,0,2024-12-20_13h46.09.441,ASRT_motor,2023.2.3,141.52639051660123,2024-12-20 13h59.12.588288 +0800,
sequences/sub139_initial_random.csv,0,0,0,4,red,,,,0,0,0,0,0,23,23,23,,,,,,,,,,,,,,,,,,,,,,,,,,,,,38.61309330002405,,,,,,,,,,,,,38.60682069999166,38.61309330002405,38.61309330002405,38.81457899999805,38.92934939998668,4,1,0.3128701000241563,None,38.930032399948686,38.93700459995307,38.93700459995307,39.140846899943426,39.34866429993417,39.342378100031056,39.34240690001752,39.34866429993417,40.044335999991745,,,,,,,,,,,,,,,,,,,,,,,,,,,,,,,,,,,,,,,,,,,,,,,,,,,,,,,,,,,,,,sub139,motor,3,0,2024-12-20_13h46.09.441,ASRT_motor,2023.2.3,141.52639051660123,2024-12-20 13h59.12.588288 +0800,
sequences/sub139_initial_random.csv,0,0,0,4,red,,,,0,0,0,0,0,24,24,24,,,,,,,,,,,,,,,,,,,,,,,,,,,,,40.05120170000009,,,,,,,,,,,,,40.04502770002,40.05120170000009,40.05120170000009,40.25226219999604,40.38660249998793,4,1,0.32829669991042465,None,40.38712610001676,40.3935679999413,40.3935679999413,40.59894009993877,40.80749369994737,40.800674599944614,40.80069629999343,40.80749369994737,41.501994799938984,,,,,,,,,,,,,,,,,,,,,,,,,,,,,,,,,,,,,,,,,,,,,,,,,,,,,,,,,,,,,,sub139,motor,3,0,2024-12-20_13h46.09.441,ASRT_motor,2023.2.3,141.52639051660123,2024-12-20 13h59.12.588288 +0800,
sequences/sub139_initial_random.csv,0,0,0,4,red,,,,0,0,0,0,0,25,25,25,,,,,,,,,,,,,,,,,,,,,,,,,,,,,41.50883209996391,,,,,,,,,,,,,41.50237030000426,41.50883209996391,41.50883209996391,41.710546399932355,41.852019499987364,4,1,0.33969699998851866,None,41.85259629995562,41.8590710000135,41.8590710000135,42.064322100020945,42.272732399986126,42.26569070003461,42.265707200043835,42.272732399986126,42.96779080003034,,,,,,,,,,,,,,,,,,,,,,,,,,,,,,,,,,,,,,,,,,,,,,,,,,,,,,,,,,,,,,sub139,motor,3,0,2024-12-20_13h46.09.441,ASRT_motor,2023.2.3,141.52639051660123,2024-12-20 13h59.12.588288 +0800,
sequences/sub139_initial_random.csv,1,90,1,3,red,,,,0,0,0,0,0,26,26,26,,,,,,,,,,,,,,,,,,,,,,,,,,,,,42.975346399936825,,,,,,,,,,,,,42.96848619997036,42.975346399936825,42.975346399936825,43.175932300044224,43.31802929996047,3,1,0.3394298000494018,None,43.31871989998035,43.325379799935035,43.325379799935035,43.52960320003331,43.73784389998764,43.731860299943946,43.731893999967724,43.73784389998764,44.43268970004283,,,,,,,,,,,,,,,,,,,,,,,,,,,,,,,,,,,,,,,,,,,,,,,,,,,,,,,,,,,,,,sub139,motor,3,0,2024-12-20_13h46.09.441,ASRT_motor,2023.2.3,141.52639051660123,2024-12-20 13h59.12.588288 +0800,
sequences/sub139_initial_random.csv,1,90,1,3,red,,,,0,0,0,0,0,27,27,27,,,,,,,,,,,,,,,,,,,,,,,,,,,,,44.43972769996617,,,,,,,,,,,,,44.433337999973446,44.43972769996617,44.43972769996617,44.640804299968295,44.797481299960054,3,1,0.3540458999341354,None,44.798126099980436,44.80427900003269,44.80427900003269,45.00892369996291,45.216587299946696,45.2100655999966,45.210080299992114,45.216587299946696,45.91765519999899,,,,,,,,,,,,,,,,,,,,,,,,,,,,,,,,,,,,,,,,,,,,,,,,,,,,,,,,,,,,,,sub139,motor,3,0,2024-12-20_13h46.09.441,ASRT_motor,2023.2.3,141.52639051660123,2024-12-20 13h59.12.588288 +0800,
sequences/sub139_initial_random.csv,3,270,3,1,red,,,,0,0,0,0,0,28,28,28,,,,,,,,,,,,,,,,,,,,,,,,,,,,,45.92494519997854,,,,,,,,,,,,,45.91841819998808,45.92494519997854,45.92494519997854,46.12664939998649,46.24913709994871,4,0,0.3205305999144912,None,46.24975560000166,46.25811029993929,46.25811029993929,46.46699590003118,46.67500559997279,46.66870000003837,46.66871610004455,46.67500559997279,47.369747899938375,,,,,,,,,,,,,,,,,,,,,,,,,,,,,,,,,,,,,,,,,,,,,,,,,,,,,,,,,,,,,,sub139,motor,3,0,2024-12-20_13h46.09.441,ASRT_motor,2023.2.3,141.52639051660123,2024-12-20 13h59.12.588288 +0800,
sequences/sub139_initial_random.csv,0,0,0,4,red,,,,0,0,0,0,0,29,29,29,,,,,,,,,,,,,,,,,,,,,,,,,,,,,47.3770499000093,,,,,,,,,,,,,47.37009450001642,47.3770499000093,47.3770499000093,47.57784229994286,47.70150279998779,4,1,0.31893970002420247,None,47.70261539996136,47.71427490003407,47.71427490003407,47.91150950000156,48.11949970002752,48.113030300009996,48.11304430000018,48.11949970002752,48.81508860003669,,,,,,,,,,,,,,,,,,,,,,,,,,,,,,,,,,,,,,,,,,,,,,,,,,,,,,,,,,,,,,sub139,motor,3,0,2024-12-20_13h46.09.441,ASRT_motor,2023.2.3,141.52639051660123,2024-12-20 13h59.12.588288 +0800,
sequences/sub139_initial_random.csv,1,90,1,3,red,,,,0,0,0,0,0,30,30,30,,,,,,,,,,,,,,,,,,,,,,,,,,,,,48.8236343000317,,,,,,,,,,,,,48.81573369994294,48.8236343000317,48.8236343000317,49.02303090004716,49.19276579993311,3,1,0.3634506999514997,None,49.19342919997871,49.199007399962284,49.199007399962284,49.40408030000981,49.61224859999493,49.60743009997532,49.607471799943596,49.61224859999493,50.30818880000152,50.31407870003022,,,,,,,,,,,,,,,,,,,,,,,,,,,,,,,,,,,,,,,,,,,,,,,,,,,,,,,,,,,,,sub139,motor,3,0,2024-12-20_13h46.09.441,ASRT_motor,2023.2.3,141.52639051660123,2024-12-20 13h59.12.588288 +0800,
sequences/sub139_initial_random.csv,2,180,2,2,red,,,,0,0,0,0,0,31,31,31,,,,,,,,,,,,,,,,,,,,,,,,,,,,,50.31407870003022,,,,,,,,,,,,,50.30883150000591,50.31407870003022,50.31407870003022,50.51585980004165,50.725590399932116,2,1,0.40881379996426404,None,50.726132299983874,50.730895500048064,50.730895500048064,50.93989249994047,51.14752669993322,51.141796199954115,51.141828699968755,51.14752669993322,51.842244799947366,,,,,,,,,,,,,,,,,,,,,,,,,,,,,,,,,,,,,,,,,,,,,,,,,,,,,,,,,,,,,,sub139,motor,3,0,2024-12-20_13h46.09.441,ASRT_motor,2023.2.3,141.52639051660123,2024-12-20 13h59.12.588288 +0800,
sequences/sub139_initial_random.csv,2,180,2,2,red,,,,0,0,0,0,0,32,32,32,,,,,,,,,,,,,,,,,,,,,,,,,,,,,51.84877639997285,,,,,,,,,,,,,51.842748699942604,51.84877639997285,51.84877639997285,52.05039999994915,52.18514630000573,2,1,0.3311792000895366,None,52.185767099959776,52.19117100001313,52.19117100001313,52.39729789993726,52.60561800003052,52.59973420004826,52.59976180002559,52.60561800003052,53.30082629993558,,,,,,,,,,,,,,,,,,,,,,,,,,,,,,,,,,,,,,,,,,,,,,,,,,,,,,,,,,,,,,sub139,motor,3,0,2024-12-20_13h46.09.441,ASRT_motor,2023.2.3,141.52639051660123,2024-12-20 13h59.12.588288 +0800,
sequences/sub139_initial_random.csv,3,270,3,1,red,,,,0,0,0,0,0,33,33,33,,,,,,,,,,,,,,,,,,,,,,,,,,,,,53.308270600042306,,,,,,,,,,,,,53.30161500000395,53.308270600042306,53.308270600042306,53.50890929996967,53.663403999991715,1,1,0.349050399963744,None,53.66404059994966,53.66970680002123,53.66970680002123,53.87664070003666,54.08503389998805,54.07973050000146,54.079764600028284,54.08503389998805,54.7802230999805,54.78692189999856,,,,,,,,,,,,,,,,,,,,,,,,,,,,,,,,,,,,,,,,,,,,,,,,,,,,,,,,,,,,,sub139,motor,3,0,2024-12-20_13h46.09.441,ASRT_motor,2023.2.3,141.52639051660123,2024-12-20 13h59.12.588288 +0800,
sequences/sub139_initial_random.csv,0,0,0,4,red,,,,0,0,0,0,0,34,34,34,,,,,,,,,,,,,,,,,,,,,,,,,,,,,54.78692189999856,,,,,,,,,,,,,54.780722399940714,54.78692189999856,54.78692189999856,54.98798870004248,55.10135390004143,4,1,0.3075952000217512,None,55.10203800001182,55.109156399965286,55.109156399965286,55.31435779994354,55.52253980003297,55.51570570003241,55.51572150003631,55.52253980003297,56.21690050000325,,,,,,,,,,,,,,,,,,,,,,,,,,,,,,,,,,,,,,,,,,,,,,,,,,,,,,,,,,,,,,sub139,motor,3,0,2024-12-20_13h46.09.441,ASRT_motor,2023.2.3,141.52639051660123,2024-12-20 13h59.12.588288 +0800,
sequences/sub139_initial_random.csv,1,90,1,3,red,,,,0,0,0,0,0,35,35,35,,,,,,,,,,,,,,,,,,,,,,,,,,,,,56.22370029997546,,,,,,,,,,,,,56.21748220000882,56.22370029997546,56.22370029997546,56.42588789993897,56.61440209997818,3,1,0.38312480004969984,None,56.6155292999465,56.62269129999913,56.62269129999913,56.82755339995492,57.036175600020215,57.03051840001717,57.03054880001582,57.036175600020215,57.73243930004537,,,,,,,,,,,,,,,,,,,,,,,,,,,,,,,,,,,,,,,,,,,,,,,,,,,,,,,,,,,,,,sub139,motor,3,0,2024-12-20_13h46.09.441,ASRT_motor,2023.2.3,141.52639051660123,2024-12-20 13h59.12.588288 +0800,
sequences/sub139_initial_random.csv,1,90,1,3,red,,,,0,0,0,0,0,36,36,36,,,,,,,,,,,,,,,,,,,,,,,,,,,,,57.74184759997297,,,,,,,,,,,,,57.734484800021164,57.74184759997297,57.74184759997297,57.94634469994344,58.076003100024536,3,1,0.32599230005871505,None,58.07746269996278,58.087450699997135,58.087450699997135,58.2862472999841,58.49483550002333,58.48946079995949,58.48950539994985,58.49483550002333,59.18928579997737,59.19542110001203,,,,,,,,,,,,,,,,,,,,,,,,,,,,,,,,,,,,,,,,,,,,,,,,,,,,,,,,,,,,,sub139,motor,3,0,2024-12-20_13h46.09.441,ASRT_motor,2023.2.3,141.52639051660123,2024-12-20 13h59.12.588288 +0800,
sequences/sub139_initial_random.csv,1,90,1,3,red,,,,0,0,0,0,0,37,37,37,,,,,,,,,,,,,,,,,,,,,,,,,,,,,59.19542110001203,,,,,,,,,,,,,59.18957699998282,59.19542110001203,59.19542110001203,59.39797369996086,59.53274729999248,3,1,0.32873549999203533,None,59.53301609994378,59.538843599963,59.538843599963,59.74485260003712,59.953015099978074,59.94617050001398,59.946188000030816,59.953015099978074,60.64793979993556,,,,,,,,,,,,,,,,,,,,,,,,,,,,,,,,,,,,,,,,,,,,,,,,,,,,,,,,,,,,,,sub139,motor,3,0,2024-12-20_13h46.09.441,ASRT_motor,2023.2.3,141.52639051660123,2024-12-20 13h59.12.588288 +0800,
sequences/sub139_initial_random.csv,2,180,2,2,red,,,,0,0,0,0,0,38,38,38,,,,,,,,,,,,,,,,,,,,,,,,,,,,,60.654998900019564,,,,,,,,,,,,,60.64845840004273,60.654998900019564,60.654998900019564,60.855354300001636,60.990492600016296,2,1,0.33100739994551986,None,60.99112859996967,60.99752750003245,60.99752750003245,61.202761900029145,61.41194370004814,61.405676599941216,61.405720800044946,61.41194370004814,62.10608239995781,,,,,,,,,,,,,,,,,,,,,,,,,,,,,,,,,,,,,,,,,,,,,,,,,,,,,,,,,,,,,,sub139,motor,3,0,2024-12-20_13h46.09.441,ASRT_motor,2023.2.3,141.52639051660123,2024-12-20 13h59.12.588288 +0800,
sequences/sub139_initial_random.csv,3,270,3,1,red,,,,0,0,0,0,0,39,39,39,,,,,,,,,,,,,,,,,,,,,,,,,,,,,62.11298680002801,,,,,,,,,,,,,62.10665950004477,62.11298680002801,62.11298680002801,62.31383410003036,62.43595680000726,1,1,0.3200217999983579,None,62.43677150004078,62.44521429995075,62.44521429995075,62.64734329993371,62.855648300028406,62.850040299934335,62.85007569997106,62.855648300028406,63.550809300038964,,,,,,,,,,,,,,,,,,,,,,,,,,,,,,,,,,,,,,,,,,,,,,,,,,,,,,,,,,,,,,sub139,motor,3,0,2024-12-20_13h46.09.441,ASRT_motor,2023.2.3,141.52639051660123,2024-12-20 13h59.12.588288 +0800,
sequences/sub139_initial_random.csv,0,0,0,4,red,,,,0,0,0,0,0,40,40,40,,,,,,,,,,,,,,,,,,,,,,,,,,,,,63.55782889993861,,,,,,,,,,,,,63.55143520003185,63.55782889993861,63.55782889993861,63.75846060004551,63.86408820003271,4,1,0.29955080000218004,None,63.86462100001518,63.869033699971624,63.869033699971624,64.07787819998339,64.28578229993582,64.27932059997693,64.27933889999986,64.28578229993582,64.98048729996663,,,,,,,,,,,,,,,,,,,,,,,,,,,,,,,,,,,,,,,,,,,,,,,,,,,,,,,,,,,,,,sub139,motor,3,0,2024-12-20_13h46.09.441,ASRT_motor,2023.2.3,141.52639051660123,2024-12-20 13h59.12.588288 +0800,
sequences/sub139_initial_random.csv,2,180,2,2,red,,,,0,0,0,0,0,41,41,41,,,,,,,,,,,,,,,,,,,,,,,,,,,,,64.9872844000347,,,,,,,,,,,,,64.98113510000985,64.9872844000347,64.9872844000347,65.18901500001084,65.32918949995656,2,1,0.33698169991839677,None,65.3297872999683,65.33532099996228,65.33532099996228,65.5430786999641,65.75117339997087,65.74597980000544,65.74601210001856,65.75117339997087,66.44670380000025,,,,,,,,,,,,,,,,,,,,,,,,,,,,,,,,,,,,,,,,,,,,,,,,,,,,,,,,,,,,,,sub139,motor,3,0,2024-12-20_13h46.09.441,ASRT_motor,2023.2.3,141.52639051660123,2024-12-20 13h59.12.588288 +0800,
sequences/sub139_initial_random.csv,2,180,2,2,red,,,,0,0,0,0,0,42,42,42,,,,,,,,,,,,,,,,,,,,,,,,,,,,,66.4554560999386,,,,,,,,,,,,,66.44752799998969,66.4554560999386,66.4554560999386,66.66097560001072,66.78979880001862,2,1,0.33121119998395443,None,66.79045580001548,66.79748059995472,66.79748059995472,67.00152059993707,67.21000059996732,67.20440209994558,67.20445319998544,67.21000059996732,67.90520969999488,,,,,,,,,,,,,,,,,,,,,,,,,,,,,,,,,,,,,,,,,,,,,,,,,,,,,,,,,,,,,,sub139,motor,3,0,2024-12-20_13h46.09.441,ASRT_motor,2023.2.3,141.52639051660123,2024-12-20 13h59.12.588288 +0800,
sequences/sub139_initial_random.csv,2,180,2,2,red,,,,0,0,0,0,0,43,43,43,,,,,,,,,,,,,,,,,,,,,,,,,,,,,67.91463240003213,,,,,,,,,,,,,67.90615940000862,67.91463240003213,67.91463240003213,68.12011409993283,68.26942419994157,2,1,0.35123310005292296,None,68.27004620002117,68.27511049993336,68.27511049993336,68.48045469995122,68.69171139993705,68.68521679996047,68.68526759999804,68.69171139993705,69.39139190001879,,,,,,,,,,,,,,,,,,,,,,,,,,,,,,,,,,,,,,,,,,,,,,,,,,,,,,,,,,,,,,sub139,motor,3,0,2024-12-20_13h46.09.441,ASRT_motor,2023.2.3,141.52639051660123,2024-12-20 13h59.12.588288 +0800,
sequences/sub139_initial_random.csv,2,180,2,2,red,,,,0,0,0,0,0,44,44,44,,,,,,,,,,,,,,,,,,,,,,,,,,,,,69.39782389998436,,,,,,,,,,,,,69.39206009998452,69.39782389998436,69.39782389998436,69.59912369993981,69.75318070000503,2,1,0.3527812999673188,None,69.75378010002896,69.75943299999926,69.75943299999926,69.96685790002812,70.17469939996954,70.16982049995568,70.16986529994756,70.17469939996954,70.87078160000965,70.8769772000378,,,,,,,,,,,,,,,,,,,,,,,,,,,,,,,,,,,,,,,,,,,,,,,,,,,,,,,,,,,,,sub139,motor,3,0,2024-12-20_13h46.09.441,ASRT_motor,2023.2.3,141.52639051660123,2024-12-20 13h59.12.588288 +0800,
sequences/sub139_initial_random.csv,1,90,1,3,red,,,,0,0,0,0,0,45,45,45,,,,,,,,,,,,,,,,,,,,,,,,,,,,,70.8769772000378,,,,,,,,,,,,,70.8713041000301,70.8769772000378,70.8769772000378,71.07761389994994,71.17601359996479,3,1,0.2951690999325365,None,71.17625969997607,71.18224620004185,71.18224620004185,71.39008519996423,71.59800600004382,71.59160649997648,71.5916224999819,71.59800600004382,72.29338099993765,,,,,,,,,,,,,,,,,,,,,,,,,,,,,,,,,,,,,,,,,,,,,,,,,,,,,,,,,,,,,,sub139,motor,3,0,2024-12-20_13h46.09.441,ASRT_motor,2023.2.3,141.52639051660123,2024-12-20 13h59.12.588288 +0800,
sequences/sub139_initial_random.csv,0,0,0,4,red,,,,0,0,0,0,0,46,46,46,,,,,,,,,,,,,,,,,,,,,,,,,,,,,72.29988409997895,,,,,,,,,,,,,72.29407679999713,72.29988409997895,72.29988409997895,72.50164070003666,72.62867779994849,4,1,0.32296939997468144,None,72.62923680001404,72.63582580001093,72.63582580001093,72.84177319996525,73.04970510001294,73.04433810000774,73.04436790000182,73.04970510001294,73.74450160004199,,,,,,,,,,,,,,,,,,,,,,,,,,,,,,,,,,,,,,,,,,,,,,,,,,,,,,,,,,,,,,sub139,motor,3,0,2024-12-20_13h46.09.441,ASRT_motor,2023.2.3,141.52639051660123,2024-12-20 13h59.12.588288 +0800,
sequences/sub139_initial_random.csv,0,0,0,4,red,,,,0,0,0,0,0,47,47,47,,,,,,,,,,,,,,,,,,,,,,,,,,,,,73.75109409994911,,,,,,,,,,,,,73.74510659999214,73.75109409994911,73.75109409994911,73.95261929999106,74.0756953000091,4,1,0.3206131999613717,None,74.07649659994058,74.08357869996689,74.08357869996689,74.28605729993433,74.49659540003631,74.4899978999747,74.49005709995981,74.49659540003631,75.19047030003276,75.19638640002813,,,,,,,,,,,,,,,,,,,,,,,,,,,,,,,,,,,,,,,,,,,,,,,,,,,,,,,,,,,,,sub139,motor,3,0,2024-12-20_13h46.09.441,ASRT_motor,2023.2.3,141.52639051660123,2024-12-20 13h59.12.588288 +0800,
sequences/sub139_initial_random.csv,1,90,1,3,red,,,,0,0,0,0,0,48,48,48,,,,,,,,,,,,,,,,,,,,,,,,,,,,,75.19638640002813,,,,,,,,,,,,,75.19119579996914,75.19638640002813,75.19638640002813,75.3971779999556,75.53235540003516,3,1,0.33309010008815676,None,75.53322209999897,75.54475300002377,75.54475300002377,75.74426489998586,75.95198230003007,75.94575810001697,75.94577320001554,75.95198230003007,76.64766469993629,,,,,,,,,,,,,,,,,,,,,,,,,,,,,,,,,,,,,,,,,,,,,,,,,,,,,,,,,,,,,,sub139,motor,3,0,2024-12-20_13h46.09.441,ASRT_motor,2023.2.3,141.52639051660123,2024-12-20 13h59.12.588288 +0800,
sequences/sub139_initial_random.csv,1,90,1,3,red,,,,0,0,0,0,0,49,49,49,,,,,,,,,,,,,,,,,,,,,,,,,,,,,76.65549629996531,,,,,,,,,,,,,76.64829989999998,76.65549629996531,76.65549629996531,76.85576980002224,77.05930600001011,3,1,0.3972133999923244,None,77.05995849997271,77.06767419993412,77.06767419993412,77.27185959997587,77.48012349999044,77.47368149994873,77.47370660002343,77.48012349999044,78.17552269995213,,,,,,,,,,,,,,,,,,,,,,,,,,,,,,,,,,,,,,,,,,,,,,,,,,,,,,,,,,,,,,sub139,motor,3,0,2024-12-20_13h46.09.441,ASRT_motor,2023.2.3,141.52639051660123,2024-12-20 13h59.12.588288 +0800,
sequences/sub139_initial_random.csv,0,0,0,4,red,,,,0,0,0,0,0,50,50,50,,,,,,,,,,,,,,,,,,,,,,,,,,,,,78.1825348000275,,,,,,,,,,,,,78.1761898000259,78.1825348000275,78.1825348000275,78.3836173999589,78.49720300000627,4,1,0.31012439995538443,None,78.49789969995618,78.50406219996512,78.50406219996512,78.70960800000466,78.91728109994438,78.91127569996752,78.91129509999882,78.91728109994438,79.6123871000018,,,,,,,,,,,,,,,,,,,,,,,,,,,,,,,,,,,,,,,,,,,,,,,,,,,,,,,,,,,,,,sub139,motor,3,0,2024-12-20_13h46.09.441,ASRT_motor,2023.2.3,141.52639051660123,2024-12-20 13h59.12.588288 +0800,
sequences/sub139_initial_random.csv,1,90,1,3,red,,,,0,0,0,0,0,51,51,51,,,,,,,,,,,,,,,,,,,,,,,,,,,,,79.61926379997749,,,,,,,,,,,,,79.61297829996329,79.61926379997749,79.61926379997749,79.82086920004804,79.97564600000624,3,1,0.35071310005150735,None,79.97640589997172,79.98345569998492,79.98345569998492,80.1886987000471,80.39656140003353,80.39014339994173,80.39015929994639,80.39656140003353,81.09200089995284,,,,,,,,,,,,,,,,,,,,,,,,,,,,,,,,,,,,,,,,,,,,,,,,,,,,,,,,,,,,,,sub139,motor,3,0,2024-12-20_13h46.09.441,ASRT_motor,2023.2.3,141.52639051660123,2024-12-20 13h59.12.588288 +0800,
sequences/sub139_initial_random.csv,2,180,2,2,red,,,,0,0,0,0,0,52,52,52,,,,,,,,,,,,,,,,,,,,,,,,,,,,,81.09878180001397,,,,,,,,,,,,,81.0926983000245,81.09878180001397,81.09878180001397,81.29977669997606,81.45470380003098,2,1,0.3515497000189498,None,81.45535139995627,81.46216430002823,81.46216430002823,81.66798409994226,81.87601290002931,81.86984069994651,81.86987459997181,81.87601290002931,82.57071290002204,,,,,,,,,,,,,,,,,,,,,,,,,,,,,,,,,,,,,,,,,,,,,,,,,,,,,,,,,,,,,,sub139,motor,3,0,2024-12-20_13h46.09.441,ASRT_motor,2023.2.3,141.52639051660123,2024-12-20 13h59.12.588288 +0800,
sequences/sub139_initial_random.csv,2,180,2,2,red,,,,0,0,0,0,0,53,53,53,,,,,,,,,,,,,,,,,,,,,,,,,,,,,82.57695250003599,,,,,,,,,,,,,82.57101349998266,82.57695250003599,82.57695250003599,82.77904799999669,82.9267833000049,2,1,0.34476569993421435,None,82.92745159997139,82.93396509997547,82.93396509997547,83.14024750003591,83.34833309997339,83.34218150004745,83.34221529995557,83.34833309997339,84.04328899993561,,,,,,,,,,,,,,,,,,,,,,,,,,,,,,,,,,,,,,,,,,,,,,,,,,,,,,,,,,,,,,sub139,motor,3,0,2024-12-20_13h46.09.441,ASRT_motor,2023.2.3,141.52639051660123,2024-12-20 13h59.12.588288 +0800,
sequences/sub139_initial_random.csv,3,270,3,1,red,,,,0,0,0,0,0,54,54,54,,,,,,,,,,,,,,,,,,,,,,,,,,,,,84.05143110000063,,,,,,,,,,,,,84.04390970000532,84.05143110000063,84.05143110000063,84.25164519995451,84.43094069999643,1,1,0.3750847999472171,None,84.4319282999495,84.43897719995584,84.43897719995584,84.63999789999798,84.8495239999611,84.84341420000419,84.84346450003795,84.8495239999611,85.54431859997567,85.55115760001354,,,,,,,,,,,,,,,,,,,,,,,,,,,,,,,,,,,,,,,,,,,,,,,,,,,,,,,,,,,,,sub139,motor,3,0,2024-12-20_13h46.09.441,ASRT_motor,2023.2.3,141.52639051660123,2024-12-20 13h59.12.588288 +0800,
sequences/sub139_initial_random.csv,0,0,0,4,red,,,,0,0,0,0,0,55,55,55,,,,,,,,,,,,,,,,,,,,,,,,,,,,,85.55115760001354,,,,,,,,,,,,,85.54508109996095,85.55115760001354,85.55115760001354,85.75147469993681,85.86431139998604,4,1,0.30665429995860904,None,85.86500879994128,85.87187319993973,85.87187319993973,86.07768770004623,86.28559909993783,86.2791463000467,86.27916269993875,86.28559909993783,86.98341009998694,,,,,,,,,,,,,,,,,,,,,,,,,,,,,,,,,,,,,,,,,,,,,,,,,,,,,,,,,,,,,,sub139,motor,3,0,2024-12-20_13h46.09.441,ASRT_motor,2023.2.3,141.52639051660123,2024-12-20 13h59.12.588288 +0800,
sequences/sub139_initial_random.csv,0,0,0,4,red,,,,0,0,0,0,0,56,56,56,,,,,,,,,,,,,,,,,,,,,,,,,,,,,86.98777809995227,,,,,,,,,,,,,86.98377549997531,86.98777809995227,86.98777809995227,87.18836899998132,87.2888677000301,3,0,0.29608640004880726,None,87.28960429993458,87.29731699998956,87.29731699998956,87.50125780003145,87.70914209994953,87.70268019998912,87.70270499994513,87.70914209994953,88.40395149996039,,,,,,,,,,,,,,,,,,,,,,,,,,,,,,,,,,,,,,,,,,,,,,,,,,,,,,,,,,,,,,sub139,motor,3,0,2024-12-20_13h46.09.441,ASRT_motor,2023.2.3,141.52639051660123,2024-12-20 13h59.12.588288 +0800,
sequences/sub139_initial_random.csv,0,0,0,4,red,,,,0,0,0,0,0,57,57,57,,,,,,,,,,,,,,,,,,,,,,,,,,,,,88.4101640000008,,,,,,,,,,,,,88.40419110003859,88.4101640000008,88.4101640000008,88.61222170002293,88.70441070001107,4,1,0.29137039999477565,None,88.7046722000232,88.71183359995484,88.71183359995484,88.91786030004732,89.12546100001782,89.11953220004216,89.11955049994867,89.12546100001782,89.82150640001055,,,,,,,,,,,,,,,,,,,,,,,,,,,,,,,,,,,,,,,,,,,,,,,,,,,,,,,,,,,,,,sub139,motor,3,0,2024-12-20_13h46.09.441,ASRT_motor,2023.2.3,141.52639051660123,2024-12-20 13h59.12.588288 +0800,
sequences/sub139_initial_random.csv,3,270,3,1,red,,,,0,0,0,0,0,58,58,58,,,,,,,,,,,,,,,,,,,,,,,,,,,,,89.82698440004606,,,,,,,,,,,,,89.82183919998351,89.82698440004606,89.82698440004606,90.02918469998986,90.22324089996982,1,1,0.3901230999035761,None,90.2235014999751,90.22957389999647,90.22957389999647,90.43882349994965,90.6465465000365,90.6413942000363,90.64143439999316,90.6465465000365,91.34215219994076,91.34979510004632,,,,,,,,,,,,,,,,,,,,,,,,,,,,,,,,,,,,,,,,,,,,,,,,,,,,,,,,,,,,,sub139,motor,3,0,2024-12-20_13h46.09.441,ASRT_motor,2023.2.3,141.52639051660123,2024-12-20 13h59.12.588288 +0800,
sequences/sub139_initial_random.csv,3,270,3,1,red,,,,0,0,0,0,0,59,59,59,,,,,,,,,,,,,,,,,,,,,,,,,,,,,91.34979510004632,,,,,,,,,,,,,91.34288110001944,91.34979510004632,91.34979510004632,91.5494444000069,91.68409779993817,1,1,0.3294210999738425,None,91.68497830000706,91.6953635000391,91.6953635000391,91.89691390004009,92.10507239995059,92.09948470001109,92.09953040000983,92.10507239995059,92.79996329999994,,,,,,,,,,,,,,,,,,,,,,,,,,,,,,,,,,,,,,,,,,,,,,,,,,,,,,,,,,,,,,sub139,motor,3,0,2024-12-20_13h46.09.441,ASRT_motor,2023.2.3,141.52639051660123,2024-12-20 13h59.12.588288 +0800,
sequences/sub139_initial_random.csv,2,180,2,2,red,,,,0,0,0,0,0,60,60,60,,,,,,,,,,,,,,,,,,,,,,,,,,,,,92.80669570004102,,,,,,,,,,,,,92.8007797000464,92.80669570004102,92.80669570004102,93.00862189999316,93.2112912000157,2,1,0.39689329999964684,None,93.21199730003718,93.21859639999457,93.21859639999457,93.42451289994642,93.63341110001784,93.62759589997586,93.62764750001952,93.63341110001784,94.32831989997067,94.33393439999782,,,,,,,,,,,,,,,,,,,,,,,,,,,,,,,,,,,,,,,,,,,,,,,,,,,,,,,,,,,,,sub139,motor,3,0,2024-12-20_13h46.09.441,ASRT_motor,2023.2.3,141.52639051660123,2024-12-20 13h59.12.588288 +0800,
sequences/sub139_initial_random.csv,0,0,0,4,red,,,,0,0,0,0,0,61,61,61,,,,,,,,,,,,,,,,,,,,,,,,,,,,,94.33393439999782,,,,,,,,,,,,,94.32882049994078,94.33393439999782,94.33393439999782,94.53591959993355,94.6840221999446,4,1,0.34707260003779083,None,94.68451649998315,94.69043560000136,94.69043560000136,94.89644859998953,95.10438479995355,95.09799999999814,95.09801840002183,95.10438479995355,95.7996813999489,,,,,,,,,,,,,,,,,,,,,,,,,,,,,,,,,,,,,,,,,,,,,,,,,,,,,,,,,,,,,,sub139,motor,3,0,2024-12-20_13h46.09.441,ASRT_motor,2023.2.3,141.52639051660123,2024-12-20 13h59.12.588288 +0800,
sequences/sub139_initial_random.csv,3,270,3,1,red,,,,0,0,0,0,0,62,62,62,,,,,,,,,,,,,,,,,,,,,,,,,,,,,95.80618019995745,,,,,,,,,,,,,95.80016570002772,95.80618019995745,95.80618019995745,96.00761400000192,96.14870320004411,1,1,0.3356404999503866,None,96.1492996000452,96.16026679996867,96.16026679996867,96.36181509995367,96.57019490003586,96.56447079998907,96.56450580002274,96.57019490003586,97.26498159999028,,,,,,,,,,,,,,,,,,,,,,,,,,,,,,,,,,,,,,,,,,,,,,,,,,,,,,,,,,,,,,sub139,motor,3,0,2024-12-20_13h46.09.441,ASRT_motor,2023.2.3,141.52639051660123,2024-12-20 13h59.12.588288 +0800,
sequences/sub139_initial_random.csv,1,90,1,3,red,,,,0,0,0,0,0,63,63,63,,,,,,,,,,,,,,,,,,,,,,,,,,,,,97.27305279998109,,,,,,,,,,,,,97.26558989996556,97.27305279998109,97.27305279998109,97.47306009999011,97.62667020002846,3,1,0.3516191999660805,None,97.62714969995432,97.63310059998184,97.63310059998184,97.84067329997197,98.04978639993351,98.0432054999983,98.04324449994601,98.04978639993351,98.74427319993265,,,,,,,,,,,,,,,,,,,,,,,,,,,,,,,,,,,,,,,,,,,,,,,,,,,,,,,,,,,,,,sub139,motor,3,0,2024-12-20_13h46.09.441,ASRT_motor,2023.2.3,141.52639051660123,2024-12-20 13h59.12.588288 +0800,
sequences/sub139_initial_random.csv,3,270,3,1,red,,,,0,0,0,0,0,64,64,64,,,,,,,,,,,,,,,,,,,,,,,,,,,,,98.75226280000061,,,,,,,,,,,,,98.74490179994609,98.75226280000061,98.75226280000061,98.95239849993959,99.08009139995556,1,1,0.32226730010006577,None,99.08078249997925,99.08787759998813,99.08787759998813,99.2924856999889,99.50052370002959,99.4957715999335,99.49581979995128,99.50052370002959,100.19832870003302,,,,,,,,,,,,,,,,,,,,,,,,,,,,,,,,,,,,,,,,,,,,,,,,,,,,,,,,,,,,,,sub139,motor,3,0,2024-12-20_13h46.09.441,ASRT_motor,2023.2.3,141.52639051660123,2024-12-20 13h59.12.588288 +0800,
sequences/sub139_initial_random.csv,0,0,0,4,red,,,,0,0,0,0,0,65,65,65,,,,,,,,,,,,,,,,,,,,,,,,,,,,,100.20697439997457,,,,,,,,,,,,,100.19943609996699,100.20697439997457,100.20697439997457,100.41064679995179,100.55749369994737,4,1,0.3478041000198573,None,100.5581106999889,100.56384610000532,100.56384610000532,100.77135830000043,100.97936949995346,100.97294659994077,100.97296109993476,100.97936949995346,101.67363269999623,,,,,,,,,,,,,,,,,,,,,,,,,,,,,,,,,,,,,,,,,,,,,,,,,,,,,,,,,,,,,,sub139,motor,3,0,2024-12-20_13h46.09.441,ASRT_motor,2023.2.3,141.52639051660123,2024-12-20 13h59.12.588288 +0800,
sequences/sub139_initial_random.csv,2,180,2,2,red,,,,0,0,0,0,0,66,66,66,,,,,,,,,,,,,,,,,,,,,,,,,,,,,101.68063449999318,,,,,,,,,,,,,101.67389219999313,101.68063449999318,101.68063449999318,101.88216389995068,102.05133209994528,2,1,0.3658665999537334,None,102.0518409999786,102.05626230000053,102.05626230000053,102.26499669998884,102.47261209995486,102.46700249996502,102.46707040001638,102.47261209995486,103.16757559997495,,,,,,,,,,,,,,,,,,,,,,,,,,,,,,,,,,,,,,,,,,,,,,,,,,,,,,,,,,,,,,sub139,motor,3,0,2024-12-20_13h46.09.441,ASRT_motor,2023.2.3,141.52639051660123,2024-12-20 13h59.12.588288 +0800,
sequences/sub139_initial_random.csv,3,270,3,1,red,,,,0,0,0,0,0,67,67,67,,,,,,,,,,,,,,,,,,,,,,,,,,,,,103.17527510004584,,,,,,,,,,,,,103.16818569996394,103.17527510004584,103.17527510004584,103.37608760001604,103.53030079999007,1,1,0.35037649993319064,None,103.53096500004176,103.53756570001133,103.53756570001133,103.74352320004255,103.95227679994423,103.94704430003185,103.94715010002255,103.95227679994423,104.64795709995087,104.6556028999621,,,,,,,,,,,,,,,,,,,,,,,,,,,,,,,,,,,,,,,,,,,,,,,,,,,,,,,,,,,,,sub139,motor,3,0,2024-12-20_13h46.09.441,ASRT_motor,2023.2.3,141.52639051660123,2024-12-20 13h59.12.588288 +0800,
sequences/sub139_initial_random.csv,3,270,3,1,red,,,,0,0,0,0,0,68,68,68,,,,,,,,,,,,,,,,,,,,,,,,,,,,,104.6556028999621,,,,,,,,,,,,,104.64859939995222,104.6556028999621,104.6556028999621,104.85492770001292,105.00323499995284,1,1,0.3421707000816241,None,105.00399520003702,105.01094109995756,105.01094109995756,105.21587089996319,105.4240646000253,105.41879210004117,105.41883019998204,105.4240646000253,106.11930639995262,106.12514210003428,,,,,,,,,,,,,,,,,,,,,,,,,,,,,,,,,,,,,,,,,,,,,,,,,,,,,,,,,,,,,sub139,motor,3,0,2024-12-20_13h46.09.441,ASRT_motor,2023.2.3,141.52639051660123,2024-12-20 13h59.12.588288 +0800,
sequences/sub139_initial_random.csv,1,90,1,3,red,,,,0,0,0,0,0,69,69,69,,,,,,,,,,,,,,,,,,,,,,,,,,,,,106.12514210003428,,,,,,,,,,,,,106.11975309997797,106.12514210003428,106.12514210003428,106.32718929997645,106.4896978000179,3,1,0.3609388000331819,None,106.490497999941,106.49790590000339,106.49790590000339,106.70181130000856,106.91001440002583,106.90382120001595,106.90384289994836,106.91001440002583,107.60519799997564,,,,,,,,,,,,,,,,,,,,,,,,,,,,,,,,,,,,,,,,,,,,,,,,,,,,,,,,,,,,,,sub139,motor,3,0,2024-12-20_13h46.09.441,ASRT_motor,2023.2.3,141.52639051660123,2024-12-20 13h59.12.588288 +0800,
sequences/sub139_initial_random.csv,2,180,2,2,red,,,,0,0,0,0,0,70,70,70,,,,,,,,,,,,,,,,,,,,,,,,,,,,,107.61386010004207,,,,,,,,,,,,,107.60604939993937,107.61386010004207,107.61386010004207,107.8135679999832,107.98970559996087,2,1,0.3717097999760881,None,107.99040440004319,107.9992201999994,107.9992201999994,108.20193959993776,108.41036690003239,108.40472099999897,108.40476149995811,108.41036690003239,109.10536739998497,,,,,,,,,,,,,,,,,,,,,,,,,,,,,,,,,,,,,,,,,,,,,,,,,,,,,,,,,,,,,,sub139,motor,3,0,2024-12-20_13h46.09.441,ASRT_motor,2023.2.3,141.52639051660123,2024-12-20 13h59.12.588288 +0800,
sequences/sub139_initial_random.csv,2,180,2,2,red,,,,0,0,0,0,0,71,71,71,,,,,,,,,,,,,,,,,,,,,,,,,,,,,109.11523370002396,,,,,,,,,,,,,109.10622329998296,109.11523370002396,109.11523370002396,109.32011329999659,109.48394309997093,2,1,0.36563030001707375,None,109.48466199997347,109.49045990000013,109.49045990000013,109.69492519996129,109.90297209995333,109.89815210003871,109.89819149998948,109.90297209995333,110.59852869994938,,,,,,,,,,,,,,,,,,,,,,,,,,,,,,,,,,,,,,,,,,,,,,,,,,,,,,,,,,,,,,sub139,motor,3,0,2024-12-20_13h46.09.441,ASRT_motor,2023.2.3,141.52639051660123,2024-12-20 13h59.12.588288 +0800,
sequences/sub139_initial_random.csv,3,270,3,1,red,,,,0,0,0,0,0,72,72,72,,,,,,,,,,,,,,,,,,,,,,,,,,,,,110.60653350001667,,,,,,,,,,,,,110.59927370003425,110.60653350001667,110.60653350001667,110.80622339993715,110.94945970003027,1,1,0.3376697999192402,None,110.95014440000523,110.95827970001847,110.95827970001847,111.16054249997251,111.37029200000688,111.36397399997804,111.36402810004074,111.37029200000688,112.06464150000829,112.07254820002709,,,,,,,,,,,,,,,,,,,,,,,,,,,,,,,,,,,,,,,,,,,,,,,,,,,,,,,,,,,,,sub139,motor,3,0,2024-12-20_13h46.09.441,ASRT_motor,2023.2.3,141.52639051660123,2024-12-20 13h59.12.588288 +0800,
sequences/sub139_initial_random.csv,1,90,1,3,red,,,,0,0,0,0,0,73,73,73,,,,,,,,,,,,,,,,,,,,,,,,,,,,,112.07254820002709,,,,,,,,,,,,,112.06531109998468,112.07254820002709,112.07254820002709,112.27154069999233,112.39214100001846,3,1,0.3129166999133304,None,112.393003199948,112.40027430001646,112.40027430001646,112.60434389999136,112.81308999995235,112.80699439998716,112.80702940002084,112.81308999995235,113.5084478999488,,,,,,,,,,,,,,,,,,,,,,,,,,,,,,,,,,,,,,,,,,,,,,,,,,,,,,,,,,,,,,sub139,motor,3,0,2024-12-20_13h46.09.441,ASRT_motor,2023.2.3,141.52639051660123,2024-12-20 13h59.12.588288 +0800,
sequences/sub139_initial_random.csv,1,90,1,3,red,,,,0,0,0,0,0,74,74,74,,,,,,,,,,,,,,,,,,,,,,,,,,,,,113.51547610003036,,,,,,,,,,,,,113.50952019996475,113.51547610003036,113.51547610003036,113.71570309996605,113.87266200000886,3,1,0.3534366999519989,None,113.87334859999828,113.8833446999779,113.8833446999779,114.083677800023,114.29385549994186,114.28562490001787,114.28565500001423,114.29385549994186,114.9871355999494,,,,,,,,,,,,,,,,,,,,,,,,,,,,,,,,,,,,,,,,,,,,,,,,,,,,,,,,,,,,,,sub139,motor,3,0,2024-12-20_13h46.09.441,ASRT_motor,2023.2.3,141.52639051660123,2024-12-20 13h59.12.588288 +0800,
sequences/sub139_initial_random.csv,3,270,3,1,red,,,,0,0,0,0,0,75,75,75,,,,,,,,,,,,,,,,,,,,,,,,,,,,,114.99452850001398,,,,,,,,,,,,,114.9878797000274,114.99452850001398,114.99452850001398,115.19734690000769,115.34338640002534,1,1,0.34435340005438775,None,115.34416740003508,115.35302090004552,115.35302090004552,115.5565797999734,115.76451759994961,115.75910339993425,115.75914770003874,115.76451759994961,116.45939510001335,116.46637189993635,,,,,,,,,,,,,,,,,,,,,,,,,,,,,,,,,,,,,,,,,,,,,,,,,,,,,,,,,,,,,sub139,motor,3,0,2024-12-20_13h46.09.441,ASRT_motor,2023.2.3,141.52639051660123,2024-12-20 13h59.12.588288 +0800,
sequences/sub139_initial_random.csv,1,90,1,3,red,,,,0,0,0,0,0,76,76,76,,,,,,,,,,,,,,,,,,,,,,,,,,,,,116.46637189993635,,,,,,,,,,,,,116.46012649999466,116.46637189993635,116.46637189993635,116.66690920002293,116.83802809996996,3,1,0.3625341000733897,None,116.83867520000786,116.84382700000424,116.84382700000424,117.04905269993469,117.25741189997643,117.25188220001291,117.251924399985,117.25741189997643,117.95543370000087,,,,,,,,,,,,,,,,,,,,,,,,,,,,,,,,,,,,,,,,,,,,,,,,,,,,,,,,,,,,,,sub139,motor,3,0,2024-12-20_13h46.09.441,ASRT_motor,2023.2.3,141.52639051660123,2024-12-20 13h59.12.588288 +0800,
sequences/sub139_initial_random.csv,0,0,0,4,red,,,,0,0,0,0,0,77,77,77,,,,,,,,,,,,,,,,,,,,,,,,,,,,,117.96173169999383,,,,,,,,,,,,,117.95626320003066,117.96173169999383,117.96173169999383,118.16680290002842,118.30020719999447,4,1,0.3343337000114843,None,118.30055659997743,118.30743829999119,118.30743829999119,118.51483919995371,118.72214790002909,118.71549099998083,118.71550679998472,118.72214790002909,119.41708289994858,,,,,,,,,,,,,,,,,,,,,,,,,,,,,,,,,,,,,,,,,,,,,,,,,,,,,,,,,,,,,,sub139,motor,3,0,2024-12-20_13h46.09.441,ASRT_motor,2023.2.3,141.52639051660123,2024-12-20 13h59.12.588288 +0800,
sequences/sub139_initial_random.csv,2,180,2,2,red,,,,0,0,0,0,0,78,78,78,,,,,,,,,,,,,,,,,,,,,,,,,,,,,119.42401349998545,,,,,,,,,,,,,119.41778979997616,119.42401349998545,119.42401349998545,119.62543320003897,119.80578159994911,2,1,0.3759696000488475,None,119.80609249998815,119.81217639998067,119.81217639998067,120.02072020003106,120.23050509998575,120.2239367000293,120.22395190002862,120.23050509998575,120.92471089994069,,,,,,,,,,,,,,,,,,,,,,,,,,,,,,,,,,,,,,,,,,,,,,,,,,,,,,,,,,,,,,sub139,motor,3,0,2024-12-20_13h46.09.441,ASRT_motor,2023.2.3,141.52639051660123,2024-12-20 13h59.12.588288 +0800,
sequences/sub139_initial_random.csv,2,180,2,2,red,,,,0,0,0,0,0,79,79,79,,,,,,,,,,,,,,,,,,,,,,,,,,,,,120.93175899994094,,,,,,,,,,,,,120.92538479994982,120.93175899994094,120.93175899994094,121.1336222999962,121.30799979995936,2,1,0.3718994000228122,None,121.30879959999584,121.31417280004825,121.31417280004825,121.52150639996398,121.73069260001648,121.72464180004317,121.72469850000925,121.73069260001648,122.4256008999655,122.43636229995172,,,,,,,,,,,,,,,,,,,,,,,,,,,,,,,,,,,,,,,,,,,,,,,,,,,,,,,,,,,,,sub139,motor,3,0,2024-12-20_13h46.09.441,ASRT_motor,2023.2.3,141.52639051660123,2024-12-20 13h59.12.588288 +0800,
sequences/sub139_initial_random.csv,0,0,0,4,red,,,,0,0,0,0,0,80,80,80,,,,,,,,,,,,,,,,,,,,,,,,,,,,,122.43636229995172,,,,,,,,,,,,,122.42655209999066,122.43636229995172,122.43636229995172,122.63919130002614,122.78779400000349,4,1,0.34426420007366687,None,122.7885848999722,122.79542959993705,122.79542959993705,122.99980989994947,123.20823180000298,123.20186339993961,123.20190300000831,123.20823180000298,123.90337129996624,,,,,,,,,,,,,,,,,,,,,,,,,,,,,,,,,,,,,,,,,,,,,,,,,,,,,,,,,,,,,,sub139,motor,3,0,2024-12-20_13h46.09.441,ASRT_motor,2023.2.3,141.52639051660123,2024-12-20 13h59.12.588288 +0800,
sequences/sub139_initial_random.csv,1,90,1,3,red,,,,0,0,0,0,0,81,81,81,,,,,,,,,,,,,,,,,,,,,,,,,,,,,123.91065099998377,,,,,,,,,,,,,123.90399230003823,123.91065099998377,123.91065099998377,124.11093910003547,124.23088499996811,3,1,0.3144404999911785,None,124.23166139994282,124.23988799995277,124.23988799995277,124.44506729999557,124.65264079999179,124.6467620000476,124.64679719996639,124.65264079999179,125.34791529993527,,,,,,,,,,,,,,,,,,,,,,,,,,,,,,,,,,,,,,,,,,,,,,,,,,,,,,,,,,,,,,sub139,motor,3,0,2024-12-20_13h46.09.441,ASRT_motor,2023.2.3,141.52639051660123,2024-12-20 13h59.12.588288 +0800,
sequences/sub139_initial_random.csv,0,0,0,4,red,,,,0,0,0,0,0,82,82,82,,,,,,,,,,,,,,,,,,,,,,,,,,,,,125.35457319999114,,,,,,,,,,,,,125.3486314000329,125.35457319999114,125.35457319999114,125.55616899998859,125.62880499998573,4,1,0.2716445999685675,None,125.62946029996965,125.63671700004488,125.63671700004488,125.84035339998081,126.0480940999696,126.04160670004785,126.04162000003271,126.0480940999696,126.74258219997864,,,,,,,,,,,,,,,,,,,,,,,,,,,,,,,,,,,,,,,,,,,,,,,,,,,,,,,,,,,,,,sub139,motor,3,0,2024-12-20_13h46.09.441,ASRT_motor,2023.2.3,141.52639051660123,2024-12-20 13h59.12.588288 +0800,
sequences/sub139_initial_random.csv,1,90,1,3,red,,,,0,0,0,0,0,83,83,83,,,,,,,,,,,,,,,,,,,,,,,,,,,,,126.74944119993597,,,,,,,,,,,,,126.74281920003705,126.74944119993597,126.74944119993597,126.95123959996272,127.12048199994024,3,1,0.36294989997986704,None,127.12109369994141,127.12591099995188,127.12591099995188,127.33358580002096,127.5411732000066,127.53486849996261,127.53488880000077,127.5411732000066,128.2359072000254,,,,,,,,,,,,,,,,,,,,,,,,,,,,,,,,,,,,,,,,,,,,,,,,,,,,,,,,,,,,,,sub139,motor,3,0,2024-12-20_13h46.09.441,ASRT_motor,2023.2.3,141.52639051660123,2024-12-20 13h59.12.588288 +0800,
sequences/sub139_initial_random.csv,2,180,2,2,red,,,,0,0,0,0,0,84,84,84,,,,,,,,,,,,,,,,,,,,,,,,,,,,,128.24378469993826,,,,,,,,,,,,,128.23663279996254,128.24378469993826,128.24378469993826,128.44524929998443,128.63400920003187,2,1,0.38719649997074157,None,128.6346187000163,128.6413695999654,128.6413695999654,128.84714259998873,129.05539939994924,129.0495857000351,129.04962249996606,129.05539939994924,129.75101310003083,,,,,,,,,,,,,,,,,,,,,,,,,,,,,,,,,,,,,,,,,,,,,,,,,,,,,,,,,,,,,,sub139,motor,3,0,2024-12-20_13h46.09.441,ASRT_motor,2023.2.3,141.52639051660123,2024-12-20 13h59.12.588288 +0800,
,,,,,,,,,,,,,,,,,,,,,,,,,,,,,,,,,,,,,,,,,,,,,,,,,,,,,,,,,,,,,,,,,,,,,,,,,,,,,129.75116029998753,129.7759059999371,129.7759059999371,130.34209970000666,space,0.5621982000302523,None,130.3428207000252,130.34771250002086,130.34771250002086,130.34771250002086,131.79989449994173,space,1.4471494000172243,None,,,,,,,,,,,,,,,,,,,,,,,,,,,,,,,,,,,,,,,,,,,,,,sub139,motor,3,0,2024-12-20_13h46.09.441,ASRT_motor,2023.2.3,141.52639051660123,2024-12-20 13h59.12.588288 +0800,
,1,90,2,2,red,sequences/sub139_practice_sequence_00.csv,,,,,,,,,,,0,0,0,0,0,0,0,26,,,,,,,,,,,,,,,,,,,,,132.85829889995512,,,,,,,,,,131.8258282999741,131.8297520999331,132.80641049996484,132.85138749994803,132.85829889995512,132.85829889995512,133.0625176000176,133.51002449996304,2,1,0.6472339000320062,None,133.51107719994616,133.51630719995592,133.51630719995592,133.72220409999136,133.93040740001015,133.9260695000412,133.92611410003155,133.93040740001015,134.6258219999727,134.63149729999714,,,,,,,,,,,,,,,,,,,,,,,,,,,,,,,,,,,,,,,,,,,,,,,,,,,,,,,,,,,,,sub139,motor,3,0,2024-12-20_13h46.09.441,ASRT_motor,2023.2.3,141.52639051660123,2024-12-20 13h59.12.588288 +0800,
,1,90,2,2,red,sequences/sub139_practice_sequence_00.csv,,,,,,,,,,,0,0,0,0,0,1,1,4,,,,,,,,,,,,,,,,,,,,,134.63149729999714,,,,,,,,,,,,,134.62638459994923,134.63149729999714,134.63149729999714,134.8334457000019,135.10631719999947,2,1,0.46863160002976656,None,135.1069395999657,135.1130056999391,135.1130056999391,135.31970310001634,135.5276789999334,135.5219879000215,135.5220237999456,135.5276789999334,136.2223190999357,,,,,,,,,,,,,,,,,,,,,,,,,,,,,,,,,,,,,,,,,,,,,,,,,,,,,,,,,,,,,,sub139,motor,3,0,2024-12-20_13h46.09.441,ASRT_motor,2023.2.3,141.52639051660123,2024-12-20 13h59.12.588288 +0800,
,1,90,2,2,red,sequences/sub139_practice_sequence_00.csv,,,,,,,,,,,0,0,0,0,0,2,2,48,,,,,,,,,,,,,,,,,,,,,136.22916280000936,,,,,,,,,,,,,136.22290079994127,136.22916280000936,136.22916280000936,136.4307933000382,136.60515189997386,2,1,0.3687762999907136,None,136.6057099000318,136.61042139993515,136.61042139993515,136.81943829997908,137.02736069995444,137.02123509999365,137.02126619999763,137.02736069995444,137.72198140004184,,,,,,,,,,,,,,,,,,,,,,,,,,,,,,,,,,,,,,,,,,,,,,,,,,,,,,,,,,,,,,sub139,motor,3,0,2024-12-20_13h46.09.441,ASRT_motor,2023.2.3,141.52639051660123,2024-12-20 13h59.12.588288 +0800,
,2,180,3,1,red,sequences/sub139_practice_sequence_00.csv,,,,,,,,,,,0,0,0,0,0,3,3,54,,,,,,,,,,,,,,,,,,,,,137.7289605999831,,,,,,,,,,,,,137.72245679993648,137.7289605999831,137.7289605999831,137.93074560002424,138.18380550004076,1,1,0.45028270001057535,None,138.18454319995362,138.19040800002404,138.19040800002404,138.3957201000303,138.60385309997946,138.59833870001603,138.59837439993862,138.60385309997946,139.29862599994522,,,,,,,,,,,,,,,,,,,,,,,,,,,,,,,,,,,,,,,,,,,,,,,,,,,,,,,,,,,,,,sub139,motor,3,0,2024-12-20_13h46.09.441,ASRT_motor,2023.2.3,141.52639051660123,2024-12-20 13h59.12.588288 +0800,
,1,90,2,2,red,sequences/sub139_practice_sequence_00.csv,,,,,,,,,,,0,0,0,0,0,4,4,22,,,,,,,,,,,,,,,,,,,,,139.30637859995477,,,,,,,,,,,,,139.29931000003126,139.30637859995477,139.30637859995477,139.50724079995416,139.78548189997673,2,1,0.4748407000442967,None,139.78582939994521,139.7920895999996,139.7920895999996,140.006551999948,140.2156518000411,140.20934239996132,140.20939019997604,140.2156518000411,140.91049889998976,,,,,,,,,,,,,,,,,,,,,,,,,,,,,,,,,,,,,,,,,,,,,,,,,,,,,,,,,,,,,,sub139,motor,3,0,2024-12-20_13h46.09.441,ASRT_motor,2023.2.3,141.52639051660123,2024-12-20 13h59.12.588288 +0800,
,1,90,2,2,red,sequences/sub139_practice_sequence_00.csv,,,,,,,,,,,0,0,0,0,0,5,5,45,,,,,,,,,,,,,,,,,,,,,140.9198064999655,,,,,,,,,,,,,140.9115662999684,140.9198064999655,140.9198064999655,141.12494270002935,141.3775988999987,2,1,0.4519880000734702,None,141.3783976000268,141.38707489997614,141.38707489997614,141.5897620000178,141.79816589993425,141.7928580000298,141.79290240001865,141.79816589993425,142.49337439995725,,,,,,,,,,,,,,,,,,,,,,,,,,,,,,,,,,,,,,,,,,,,,,,,,,,,,,,,,,,,,,sub139,motor,3,0,2024-12-20_13h46.09.441,ASRT_motor,2023.2.3,141.52639051660123,2024-12-20 13h59.12.588288 +0800,
,1,90,2,2,red,sequences/sub139_practice_sequence_00.csv,,,,,,,,,,,0,0,0,0,0,6,6,28,,,,,,,,,,,,,,,,,,,,,142.4997779999394,,,,,,,,,,,,,142.49409069994,142.4997779999394,142.4997779999394,142.7016569999978,142.83534230000805,2,1,0.32988769991789013,None,142.83608669997193,142.84350690001156,142.84350690001156,143.04833699995652,143.2567318000365,143.250568700023,143.25060639996082,143.2567318000365,143.95158989995252,,,,,,,,,,,,,,,,,,,,,,,,,,,,,,,,,,,,,,,,,,,,,,,,,,,,,,,,,,,,,,sub139,motor,3,0,2024-12-20_13h46.09.441,ASRT_motor,2023.2.3,141.52639051660123,2024-12-20 13h59.12.588288 +0800,
,1,90,2,2,red,sequences/sub139_practice_sequence_00.csv,,,,,,,,,,,0,0,0,0,0,7,7,56,,,,,,,,,,,,,,,,,,,,,143.957671900047,,,,,,,,,,,,,143.9521501000272,143.957671900047,143.957671900047,144.15983220003545,144.30212390003726,2,1,0.3402137999655679,None,144.30279159999918,144.3098103000084,144.3098103000084,144.51312709995545,144.72402920003515,144.71741789998487,144.7174843000248,144.72402920003515,145.4176931999391,145.42529149993788,,,,,,,,,,,,,,,,,,,,,,,,,,,,,,,,,,,,,,,,,,,,,,,,,,,,,,,,,,,,,sub139,motor,3,0,2024-12-20_13h46.09.441,ASRT_motor,2023.2.3,141.52639051660123,2024-12-20 13h59.12.588288 +0800,
,3,270,0,4,red,sequences/sub139_practice_sequence_00.csv,,,,,,,,,,,0,0,0,0,0,8,8,82,,,,,,,,,,,,,,,,,,,,,145.42529149993788,,,,,,,,,,,,,145.41821279993746,145.42529149993788,145.42529149993788,145.6249942999566,146.0022020000033,4,1,0.5728309999685735,None,146.0029142999556,146.00906609999947,146.00906609999947,146.21476969996002,146.42302210000344,146.41621529997792,146.41623049997725,146.42302210000344,147.11825209995732,,,,,,,,,,,,,,,,,,,,,,,,,,,,,,,,,,,,,,,,,,,,,,,,,,,,,,,,,,,,,,sub139,motor,3,0,2024-12-20_13h46.09.441,ASRT_motor,2023.2.3,141.52639051660123,2024-12-20 13h59.12.588288 +0800,
,2,180,3,1,red,sequences/sub139_practice_sequence_00.csv,,,,,,,,,,,0,0,0,0,0,9,9,24,,,,,,,,,,,,,,,,,,,,,147.12624589994084,,,,,,,,,,,,,147.1189545999514,147.12624589994084,147.12624589994084,147.32607629999984,147.60921050002798,1,1,0.4730958000291139,None,147.60979380004574,147.6157494999934,147.6157494999934,147.81969509995542,148.02793770004064,148.02151500002947,148.02155299996957,148.02793770004064,148.72247749997769,,,,,,,,,,,,,,,,,,,,,,,,,,,,,,,,,,,,,,,,,,,,,,,,,,,,,,,,,,,,,,sub139,motor,3,0,2024-12-20_13h46.09.441,ASRT_motor,2023.2.3,141.52639051660123,2024-12-20 13h59.12.588288 +0800,
,0,0,1,3,red,sequences/sub139_practice_sequence_00.csv,,,,,,,,,,,0,0,0,0,0,10,10,65,,,,,,,,,,,,,,,,,,,,,148.72916700004134,,,,,,,,,,,,,148.72377279994544,148.72916700004134,148.72916700004134,148.9298888000194,149.2815084999893,3,1,0.5487371999770403,None,149.2817902000388,149.28919689997565,149.28919689997565,149.49211330001708,149.70034229999874,149.69425890001003,149.6943008999806,149.70034229999874,150.39576049998868,,,,,,,,,,,,,,,,,,,,,,,,,,,,,,,,,,,,,,,,,,,,,,,,,,,,,,,,,,,,,,sub139,motor,3,0,2024-12-20_13h46.09.441,ASRT_motor,2023.2.3,141.52639051660123,2024-12-20 13h59.12.588288 +0800,
,3,270,0,4,red,sequences/sub139_practice_sequence_00.csv,,,,,,,,,,,0,0,0,0,0,11,11,39,,,,,,,,,,,,,,,,,,,,,150.40347689995542,,,,,,,,,,,,,150.39646399999037,150.40347689995542,150.40347689995542,150.60379770002328,150.9853780999547,4,1,0.5775448000058532,None,150.98677680001128,150.99373370001558,150.99373370001558,151.19384980003815,151.4020773000084,151.39538290002383,151.39539810002316,151.4020773000084,152.09642770001665,,,,,,,,,,,,,,,,,,,,,,,,,,,,,,,,,,,,,,,,,,,,,,,,,,,,,,,,,,,,,,sub139,motor,3,0,2024-12-20_13h46.09.441,ASRT_motor,2023.2.3,141.52639051660123,2024-12-20 13h59.12.588288 +0800,
,1,90,2,2,red,sequences/sub139_practice_sequence_00.csv,,,,,,,,,,,0,0,0,0,0,12,12,57,,,,,,,,,,,,,,,,,,,,,152.10345779999625,,,,,,,,,,,,,152.09682179999072,152.10345779999625,152.10345779999625,152.30573809996713,152.5038126000436,2,1,0.39663470000959933,None,152.5045514999656,152.51425100001507,152.51425100001507,152.71464739996009,152.92300109995995,152.9168698999565,152.91690059995744,152.92300109995995,153.61810299998615,,,,,,,,,,,,,,,,,,,,,,,,,,,,,,,,,,,,,,,,,,,,,,,,,,,,,,,,,,,,,,sub139,motor,3,0,2024-12-20_13h46.09.441,ASRT_motor,2023.2.3,141.52639051660123,2024-12-20 13h59.12.588288 +0800,
,2,180,3,1,red,sequences/sub139_practice_sequence_00.csv,,,,,,,,,,,0,0,0,0,0,13,13,15,,,,,,,,,,,,,,,,,,,,,153.6248855999438,,,,,,,,,,,,,153.61882019997574,153.6248855999438,153.6248855999438,153.8261156999506,153.94769579998683,1,1,0.3136327000102028,None,153.94842269993387,153.9570103000151,153.9570103000151,154.1591670999769,154.36726049997378,154.36274090001825,154.3627994999988,154.36726049997378,155.06306149996817,155.07032589998562,,,,,,,,,,,,,,,,,,,,,,,,,,,,,,,,,,,,,,,,,,,,,,,,,,,,,,,,,,,,,sub139,motor,3,0,2024-12-20_13h46.09.441,ASRT_motor,2023.2.3,141.52639051660123,2024-12-20 13h59.12.588288 +0800,
,1,90,2,2,red,sequences/sub139_practice_sequence_00.csv,,,,,,,,,,,0,0,0,0,0,14,14,0,,,,,,,,,,,,,,,,,,,,,155.07032589998562,,,,,,,,,,,,,155.06364870001562,155.07032589998562,155.07032589998562,155.27090320002753,155.5372447000118,2,1,0.46168239996768534,None,155.53798220003955,155.54547999997158,155.54547999997158,155.7496833000332,155.9582720999606,155.95208039996214,155.95212080003694,155.9582720999606,156.65336610004306,,,,,,,,,,,,,,,,,,,,,,,,,,,,,,,,,,,,,,,,,,,,,,,,,,,,,,,,,,,,,,sub139,motor,3,0,2024-12-20_13h46.09.441,ASRT_motor,2023.2.3,141.52639051660123,2024-12-20 13h59.12.588288 +0800,
,3,270,0,4,red,sequences/sub139_practice_sequence_00.csv,,,,,,,,,,,0,0,0,0,0,15,15,36,,,,,,,,,,,,,,,,,,,,,156.66079370002262,,,,,,,,,,,,,156.65410139993764,156.66079370002262,156.66079370002262,156.85993559996132,157.1282165000448,4,1,0.46005480003077537,None,157.1291817999445,157.1370886999648,157.1370886999648,157.33246679999866,157.54045410000253,157.5340273999609,157.53404179995414,157.54045410000253,158.23556760000065,,,,,,,,,,,,,,,,,,,,,,,,,,,,,,,,,,,,,,,,,,,,,,,,,,,,,,,,,,,,,,sub139,motor,3,0,2024-12-20_13h46.09.441,ASRT_motor,2023.2.3,141.52639051660123,2024-12-20 13h59.12.588288 +0800,
,1,90,2,2,red,sequences/sub139_practice_sequence_00.csv,,,,,,,,,,,0,0,0,0,0,16,16,80,,,,,,,,,,,,,,,,,,,,,158.24233269994147,,,,,,,,,,,,,158.23621879995335,158.24233269994147,158.24233269994147,158.44386380002834,158.67697249993216,2,1,0.4317391000222415,None,158.67755010002293,158.68376849999186,158.68376849999186,158.8885124999797,159.09666110004764,159.09177189995535,159.09182189998683,159.09666110004764,159.79223839996848,159.79801579995546,,,,,,,,,,,,,,,,,,,,,,,,,,,,,,,,,,,,,,,,,,,,,,,,,,,,,,,,,,,,,sub139,motor,3,0,2024-12-20_13h46.09.441,ASRT_motor,2023.2.3,141.52639051660123,2024-12-20 13h59.12.588288 +0800,
,3,270,0,4,red,sequences/sub139_practice_sequence_00.csv,,,,,,,,,,,0,0,0,0,0,17,17,50,,,,,,,,,,,,,,,,,,,,,159.79801579995546,,,,,,,,,,,,,159.79289339995012,159.79801579995546,159.79801579995546,160.00008260004688,160.32071779994294,4,1,0.516924099996686,None,160.32156950002536,160.3274941999698,160.3274941999698,160.53416929999366,160.74206630000845,160.73706129996572,160.7370862000389,160.74206630000845,161.4407663999591,,,,,,,,,,,,,,,,,,,,,,,,,,,,,,,,,,,,,,,,,,,,,,,,,,,,,,,,,,,,,,sub139,motor,3,0,2024-12-20_13h46.09.441,ASRT_motor,2023.2.3,141.52639051660123,2024-12-20 13h59.12.588288 +0800,
,1,90,2,2,red,sequences/sub139_practice_sequence_00.csv,,,,,,,,,,,0,0,0,0,0,18,18,13,,,,,,,,,,,,,,,,,,,,,161.45006049994845,,,,,,,,,,,,,161.44164129998535,161.45006049994845,161.45006049994845,161.65197520004585,161.77941229997668,2,1,0.32602280005812645,None,161.7800425000023,161.7865878000157,161.7865878000157,161.99266240000725,162.2001379999565,162.19344069994986,162.19345719995908,162.2001379999565,162.89585990004707,,,,,,,,,,,,,,,,,,,,,,,,,,,,,,,,,,,,,,,,,,,,,,,,,,,,,,,,,,,,,,sub139,motor,3,0,2024-12-20_13h46.09.441,ASRT_motor,2023.2.3,141.52639051660123,2024-12-20 13h59.12.588288 +0800,
,1,90,2,2,red,sequences/sub139_practice_sequence_00.csv,,,,,,,,,,,0,0,0,0,0,19,19,32,,,,,,,,,,,,,,,,,,,,,162.90468269994017,,,,,,,,,,,,,162.89661209995393,162.90468269994017,162.90468269994017,163.1103095000144,163.37692599999718,2,1,0.465471199946478,None,163.37773409998044,163.3868304999778,163.3868304999778,163.5898910999531,163.79925459995866,163.7931544999592,163.79324180004187,163.79925459995866,164.4942700000247,164.50046549993567,,,,,,,,,,,,,,,,,,,,,,,,,,,,,,,,,,,,,,,,,,,,,,,,,,,,,,,,,,,,,sub139,motor,3,0,2024-12-20_13h46.09.441,ASRT_motor,2023.2.3,141.52639051660123,2024-12-20 13h59.12.588288 +0800,
,3,270,0,4,red,sequences/sub139_practice_sequence_00.csv,,,,,,,,,,,0,0,0,0,0,20,20,41,,,,,,,,,,,,,,,,,,,,,164.50046549993567,,,,,,,,,,,,,164.49487609998323,164.50046549993567,164.50046549993567,164.70064109994564,165.02295460004825,4,1,0.51492089999374,None,165.02358689997345,165.02811409998685,165.02811409998685,165.23536449996755,165.4430349000031,165.43664710002486,165.4366643000394,165.4430349000031,166.13866439997219,,,,,,,,,,,,,,,,,,,,,,,,,,,,,,,,,,,,,,,,,,,,,,,,,,,,,,,,,,,,,,sub139,motor,3,0,2024-12-20_13h46.09.441,ASRT_motor,2023.2.3,141.52639051660123,2024-12-20 13h59.12.588288 +0800,
,3,270,0,4,red,sequences/sub139_practice_sequence_00.csv,,,,,,,,,,,0,0,0,0,0,21,21,78,,,,,,,,,,,,,,,,,,,,,166.1447390000103,,,,,,,,,,,,,166.1392701000441,166.1447390000103,166.1447390000103,166.34637539996766,166.5510898999637,4,1,0.4027080999221653,None,166.5519667000044,166.55971770000178,166.55971770000178,166.76274549996015,166.97115390002728,166.96521749999374,166.9652444999665,166.97115390002728,167.66690369998105,,,,,,,,,,,,,,,,,,,,,,,,,,,,,,,,,,,,,,,,,,,,,,,,,,,,,,,,,,,,,,sub139,motor,3,0,2024-12-20_13h46.09.441,ASRT_motor,2023.2.3,141.52639051660123,2024-12-20 13h59.12.588288 +0800,
,1,90,2,2,red,sequences/sub139_practice_sequence_00.csv,,,,,,,,,,,0,0,0,0,0,22,22,60,,,,,,,,,,,,,,,,,,,,,167.67371619993355,,,,,,,,,,,,,167.667640700005,167.67371619993355,167.67371619993355,167.87705420004204,168.16823249997105,2,1,0.4888430000282824,None,168.16895650001243,168.1760498000076,168.1760498000076,168.3811234999448,168.58930210000835,168.58377949998248,168.58387249999214,168.58930210000835,169.28426089999266,,,,,,,,,,,,,,,,,,,,,,,,,,,,,,,,,,,,,,,,,,,,,,,,,,,,,,,,,,,,,,sub139,motor,3,0,2024-12-20_13h46.09.441,ASRT_motor,2023.2.3,141.52639051660123,2024-12-20 13h59.12.588288 +0800,
,0,0,1,3,red,sequences/sub139_practice_sequence_00.csv,,,,,,,,,,,0,0,0,0,0,23,23,1,,,,,,,,,,,,,,,,,,,,,169.29080339998472,,,,,,,,,,,,,169.2848634000402,169.29080339998472,169.29080339998472,169.4923967999639,169.8611782999942,3,1,0.5685042999684811,None,169.86169069993775,169.86676040000748,169.86676040000748,170.07596039993223,170.2832643999718,170.27683220000472,170.27684679999948,170.2832643999718,170.978878099937,,,,,,,,,,,,,,,,,,,,,,,,,,,,,,,,,,,,,,,,,,,,,,,,,,,,,,,,,,,,,,sub139,motor,3,0,2024-12-20_13h46.09.441,ASRT_motor,2023.2.3,141.52639051660123,2024-12-20 13h59.12.588288 +0800,
,1,90,2,2,red,sequences/sub139_practice_sequence_00.csv,,,,,,,,,,,0,0,0,0,0,24,24,77,,,,,,,,,,,,,,,,,,,,,170.98646609997377,,,,,,,,,,,,,170.97952629998326,170.98646609997377,170.98646609997377,171.1868973999517,171.35555770003702,2,1,0.36402360000647604,None,171.35617909999564,171.36278119997587,171.36278119997587,171.56876279995777,171.77690619998612,171.77076270000543,171.7708030999638,171.77690619998612,172.4720071000047,,,,,,,,,,,,,,,,,,,,,,,,,,,,,,,,,,,,,,,,,,,,,,,,,,,,,,,,,,,,,,sub139,motor,3,0,2024-12-20_13h46.09.441,ASRT_motor,2023.2.3,141.52639051660123,2024-12-20 13h59.12.588288 +0800,
,2,180,3,1,red,sequences/sub139_practice_sequence_00.csv,,,,,,,,,,,0,0,0,0,0,25,25,11,,,,,,,,,,,,,,,,,,,,,172.48060450004414,,,,,,,,,,,,,172.4726821000222,172.48060450004414,172.48060450004414,172.68667510000523,172.89152599999215,1,1,0.40657880005892366,None,172.89241450000554,172.90008799999487,172.90008799999487,173.10332939994987,173.31124339997768,173.30598049995024,173.3060220000334,173.31124339997768,174.00559920002706,174.0132982999785,,,,,,,,,,,,,,,,,,,,,,,,,,,,,,,,,,,,,,,,,,,,,,,,,,,,,,,,,,,,,sub139,motor,3,0,2024-12-20_13h46.09.441,ASRT_motor,2023.2.3,141.52639051660123,2024-12-20 13h59.12.588288 +0800,
,3,270,0,4,red,sequences/sub139_practice_sequence_00.csv,,,,,,,,,,,0,0,0,0,0,26,26,68,,,,,,,,,,,,,,,,,,,,,174.0132982999785,,,,,,,,,,,,,174.0058449000353,174.0132982999785,174.0132982999785,174.2149236999685,174.44777670002077,4,1,0.42951480008196086,None,174.44856479996815,174.4578433999559,174.4578433999559,174.6582249000203,174.86683660000563,174.86037000000942,174.86039159994107,174.86683660000563,175.56198250001762,,,,,,,,,,,,,,,,,,,,,,,,,,,,,,,,,,,,,,,,,,,,,,,,,,,,,,,,,,,,,,sub139,motor,3,0,2024-12-20_13h46.09.441,ASRT_motor,2023.2.3,141.52639051660123,2024-12-20 13h59.12.588288 +0800,
,3,270,0,4,red,sequences/sub139_practice_sequence_00.csv,,,,,,,,,,,0,0,0,0,0,27,27,59,,,,,,,,,,,,,,,,,,,,,175.56974369997624,,,,,,,,,,,,,175.56291300000157,175.56974369997624,175.56974369997624,175.76985419995617,175.99298290000297,4,1,0.42069060006178916,None,175.99339319998398,175.99863509996794,175.99863509996794,176.20724689995404,176.41511950001586,176.409828200005,176.4098445000127,176.41511950001586,177.11028230004013,,,,,,,,,,,,,,,,,,,,,,,,,,,,,,,,,,,,,,,,,,,,,,,,,,,,,,,,,,,,,,sub139,motor,3,0,2024-12-20_13h46.09.441,ASRT_motor,2023.2.3,141.52639051660123,2024-12-20 13h59.12.588288 +0800,
,3,270,0,4,red,sequences/sub139_practice_sequence_00.csv,,,,,,,,,,,0,0,0,0,0,28,28,64,,,,,,,,,,,,,,,,,,,,,177.11735780001618,,,,,,,,,,,,,177.11096740001813,177.11735780001618,177.11735780001618,177.32227120001335,177.51496649999171,4,1,0.3934091000119224,None,177.51522459997796,177.5194937000051,177.5194937000051,177.72794070001692,177.93643010000233,177.93000409996603,177.93003279995173,177.93643010000233,178.63036099995952,,,,,,,,,,,,,,,,,,,,,,,,,,,,,,,,,,,,,,,,,,,,,,,,,,,,,,,,,,,,,,sub139,motor,3,0,2024-12-20_13h46.09.441,ASRT_motor,2023.2.3,141.52639051660123,2024-12-20 13h59.12.588288 +0800,
,0,0,1,3,red,sequences/sub139_practice_sequence_00.csv,,,,,,,,,,,0,0,0,0,0,29,29,18,,,,,,,,,,,,,,,,,,,,,178.63718570000492,,,,,,,,,,,,,178.63060829997994,178.63718570000492,178.63718570000492,178.8396228000056,179.14029060001485,3,1,0.498648599954322,None,179.14106159994844,179.15044679993298,179.15044679993298,179.35263989993837,179.56106450001244,179.55481110000983,179.5548382999841,179.56106450001244,180.25617830001283,,,,,,,,,,,,,,,,,,,,,,,,,,,,,,,,,,,,,,,,,,,,,,,,,,,,,,,,,,,,,,sub139,motor,3,0,2024-12-20_13h46.09.441,ASRT_motor,2023.2.3,141.52639051660123,2024-12-20 13h59.12.588288 +0800,
,3,270,0,4,red,sequences/sub139_practice_sequence_00.csv,,,,,,,,,,,0,0,0,0,0,30,30,55,,,,,,,,,,,,,,,,,,,,,180.26643570000306,,,,,,,,,,,,,180.25691530003678,180.26643570000306,180.26643570000306,180.47078680002596,180.74286859994754,4,1,0.47356610000133514,None,180.743311899947,180.74835100001656,180.74835100001656,180.96255179995205,181.16519059997518,181.1588118999498,181.15882589993998,181.16519059997518,181.86028200003784,,,,,,,,,,,,,,,,,,,,,,,,,,,,,,,,,,,,,,,,,,,,,,,,,,,,,,,,,,,,,,sub139,motor,3,0,2024-12-20_13h46.09.441,ASRT_motor,2023.2.3,141.52639051660123,2024-12-20 13h59.12.588288 +0800,
,3,270,0,4,red,sequences/sub139_practice_sequence_00.csv,,,,,,,,,,,0,0,0,0,0,31,31,75,,,,,,,,,,,,,,,,,,,,,181.8669690999668,,,,,,,,,,,,,181.86091289995238,181.8669690999668,181.8669690999668,182.0684357000282,182.23361909994856,4,1,0.35871429997496307,None,182.23455779999495,182.242999900016,182.242999900016,182.4429391999729,182.6511746000033,182.64471529994626,182.64473169995472,182.6511746000033,183.3461289999541,,,,,,,,,,,,,,,,,,,,,,,,,,,,,,,,,,,,,,,,,,,,,,,,,,,,,,,,,,,,,,sub139,motor,3,0,2024-12-20_13h46.09.441,ASRT_motor,2023.2.3,141.52639051660123,2024-12-20 13h59.12.588288 +0800,
,3,270,0,4,red,sequences/sub139_practice_sequence_00.csv,,,,,,,,,,,0,0,0,0,0,32,32,44,,,,,,,,,,,,,,,,,,,,,183.35289740003645,,,,,,,,,,,,,183.34670460002962,183.35289740003645,183.35289740003645,183.55464939994272,183.75092709995806,4,1,0.39338250004220754,None,183.7515111999819,183.75715129997116,183.75715129997116,183.9644170999527,184.17176860000473,184.16516279999632,184.1651778999949,184.17176860000473,184.86727189994417,,,,,,,,,,,,,,,,,,,,,,,,,,,,,,,,,,,,,,,,,,,,,,,,,,,,,,,,,,,,,,sub139,motor,3,0,2024-12-20_13h46.09.441,ASRT_motor,2023.2.3,141.52639051660123,2024-12-20 13h59.12.588288 +0800,
,0,0,1,3,red,sequences/sub139_practice_sequence_00.csv,,,,,,,,,,,0,0,0,0,0,33,33,34,,,,,,,,,,,,,,,,,,,,,184.8757867999375,,,,,,,,,,,,,184.8684467000421,184.8757867999375,184.8757867999375,185.07545629993547,185.37780939997174,3,1,0.49329300003591925,None,185.37851900001988,185.3842750999611,185.3842750999611,185.5930894999765,185.79757529997732,185.79106560000218,185.79109539999627,185.79757529997732,186.49180029996205,,,,,,,,,,,,,,,,,,,,,,,,,,,,,,,,,,,,,,,,,,,,,,,,,,,,,,,,,,,,,,sub139,motor,3,0,2024-12-20_13h46.09.441,ASRT_motor,2023.2.3,141.52639051660123,2024-12-20 13h59.12.588288 +0800,
,3,270,0,4,red,sequences/sub139_practice_sequence_00.csv,,,,,,,,,,,0,0,0,0,0,34,34,61,,,,,,,,,,,,,,,,,,,,,186.49856059998274,,,,,,,,,,,,,186.49234540003818,186.49856059998274,186.49856059998274,186.6999268999789,186.92484430002514,4,1,0.41970009997021407,None,186.925815399969,186.93380080000497,186.93380080000497,187.1376041000476,187.34547009994276,187.339079999947,187.33909739996307,187.34547009994276,188.04085150000174,,,,,,,,,,,,,,,,,,,,,,,,,,,,,,,,,,,,,,,,,,,,,,,,,,,,,,,,,,,,,,sub139,motor,3,0,2024-12-20_13h46.09.441,ASRT_motor,2023.2.3,141.52639051660123,2024-12-20 13h59.12.588288 +0800,
,3,270,0,4,red,sequences/sub139_practice_sequence_00.csv,,,,,,,,,,,0,0,0,0,0,35,35,81,,,,,,,,,,,,,,,,,,,,,188.04721590003464,,,,,,,,,,,,,188.04162779997569,188.04721590003464,188.04721590003464,188.24873370002024,188.44419489998836,4,1,0.3925650999881327,None,188.44495759997517,188.44965049996972,188.44965049996972,188.65840509999543,188.86655269993935,188.85989349999,188.85991530003957,188.86655269993935,189.56137180002406,,,,,,,,,,,,,,,,,,,,,,,,,,,,,,,,,,,,,,,,,,,,,,,,,,,,,,,,,,,,,,sub139,motor,3,0,2024-12-20_13h46.09.441,ASRT_motor,2023.2.3,141.52639051660123,2024-12-20 13h59.12.588288 +0800,
,1,90,2,2,red,sequences/sub139_practice_sequence_00.csv,,,,,,,,,,,0,0,0,0,0,36,36,25,,,,,,,,,,,,,,,,,,,,,189.567990200012,,,,,,,,,,,,,189.56189270003233,189.567990200012,189.567990200012,189.76980529993307,190.04870409995783,2,1,0.47619650000706315,None,190.04931519995444,190.0550918999361,190.0550918999361,190.26262059994042,190.47077619994525,190.46459170000162,190.46463039994705,190.47077619994525,191.1660860000411,,,,,,,,,,,,,,,,,,,,,,,,,,,,,,,,,,,,,,,,,,,,,,,,,,,,,,,,,,,,,,sub139,motor,3,0,2024-12-20_13h46.09.441,ASRT_motor,2023.2.3,141.52639051660123,2024-12-20 13h59.12.588288 +0800,
,3,270,0,4,red,sequences/sub139_practice_sequence_00.csv,,,,,,,,,,,0,0,0,0,0,37,37,67,,,,,,,,,,,,,,,,,,,,,191.17422409995925,,,,,,,,,,,,,191.1669335999759,191.17422409995925,191.17422409995925,191.37375429994427,191.62865159998182,4,1,0.44494990003295243,None,191.62957200000528,191.6370858999435,191.6370858999435,191.85928950004745,192.06748339999467,192.06094009999651,192.0609553999966,192.06748339999467,192.76213289995212,,,,,,,,,,,,,,,,,,,,,,,,,,,,,,,,,,,,,,,,,,,,,,,,,,,,,,,,,,,,,,sub139,motor,3,0,2024-12-20_13h46.09.441,ASRT_motor,2023.2.3,141.52639051660123,2024-12-20 13h59.12.588288 +0800,
,1,90,2,2,red,sequences/sub139_practice_sequence_00.csv,,,,,,,,,,,0,0,0,0,0,38,38,35,,,,,,,,,,,,,,,,,,,,,192.76907939999364,,,,,,,,,,,,,192.76238309999462,192.76907939999364,192.76907939999364,192.9706030000234,193.19462059997022,2,1,0.4207500000484288,None,193.1953204999445,193.2005318000447,193.2005318000447,193.4085035000462,193.61765070003457,193.611859299941,193.61191770003643,193.61765070003457,194.3118894000072,194.31771500001196,,,,,,,,,,,,,,,,,,,,,,,,,,,,,,,,,,,,,,,,,,,,,,,,,,,,,,,,,,,,,sub139,motor,3,0,2024-12-20_13h46.09.441,ASRT_motor,2023.2.3,141.52639051660123,2024-12-20 13h59.12.588288 +0800,
,3,270,0,4,red,sequences/sub139_practice_sequence_00.csv,,,,,,,,,,,0,0,0,0,0,39,39,19,,,,,,,,,,,,,,,,,,,,,194.31771500001196,,,,,,,,,,,,,194.31245099997614,194.31771500001196,194.31771500001196,194.51958069996908,194.71739599993452,4,1,0.3962424999335781,None,194.71810019994155,194.72389869997278,194.72389869997278,194.92906969995238,195.13673989998642,195.1303928999696,195.1304091999773,195.13673989998642,195.8319142999826,,,,,,,,,,,,,,,,,,,,,,,,,,,,,,,,,,,,,,,,,,,,,,,,,,,,,,,,,,,,,,sub139,motor,3,0,2024-12-20_13h46.09.441,ASRT_motor,2023.2.3,141.52639051660123,2024-12-20 13h59.12.588288 +0800,
,0,0,1,3,red,sequences/sub139_practice_sequence_00.csv,,,,,,,,,,,0,0,0,0,0,40,40,20,,,,,,,,,,,,,,,,,,,,,195.83852430002298,,,,,,,,,,,,,195.83244929998182,195.83852430002298,195.83852430002298,196.0402318999404,196.29903500003275,3,1,0.4542629999341443,None,196.29974069993477,196.30583450000267,196.30583450000267,196.5117167000426,196.720399599988,196.71432919998188,196.71435609995387,196.720399599988,197.4146727999905,,,,,,,,,,,,,,,,,,,,,,,,,,,,,,,,,,,,,,,,,,,,,,,,,,,,,,,,,,,,,,sub139,motor,3,0,2024-12-20_13h46.09.441,ASRT_motor,2023.2.3,141.52639051660123,2024-12-20 13h59.12.588288 +0800,
,0,0,1,3,red,sequences/sub139_practice_sequence_00.csv,,,,,,,,,,,0,0,0,0,0,41,41,72,,,,,,,,,,,,,,,,,,,,,197.42156779998913,,,,,,,,,,,,,197.41502690000925,197.42156779998913,197.42156779998913,197.6234064999735,197.765280899941,3,1,0.33975310006644577,None,197.76590889994986,197.77372409997042,197.77372409997042,197.97812089999206,198.18595770001411,198.17913920001592,198.17915570002515,198.18595770001411,198.88052799995057,,,,,,,,,,,,,,,,,,,,,,,,,,,,,,,,,,,,,,,,,,,,,,,,,,,,,,,,,,,,,,sub139,motor,3,0,2024-12-20_13h46.09.441,ASRT_motor,2023.2.3,141.52639051660123,2024-12-20 13h59.12.588288 +0800,
,2,180,3,1,red,sequences/sub139_practice_sequence_00.csv,,,,,,,,,,,0,0,0,0,0,42,42,16,,,,,,,,,,,,,,,,,,,,,198.88710229995195,,,,,,,,,,,,,198.88106329995207,198.88710229995195,198.88710229995195,199.0892417000141,199.39604190003593,1,1,0.502555999904871,None,199.39661439997144,199.40174030000344,199.40174030000344,199.60954330000095,199.81791220000014,199.81203719996847,199.81207820004784,199.81791220000014,200.51237529993523,,,,,,,,,,,,,,,,,,,,,,,,,,,,,,,,,,,,,,,,,,,,,,,,,,,,,,,,,,,,,,sub139,motor,3,0,2024-12-20_13h46.09.441,ASRT_motor,2023.2.3,141.52639051660123,2024-12-20 13h59.12.588288 +0800,
,3,270,0,4,red,sequences/sub139_practice_sequence_00.csv,,,,,,,,,,,0,0,0,0,0,43,43,40,,,,,,,,,,,,,,,,,,,,,200.51880520000122,,,,,,,,,,,,,200.51292380003724,200.51880520000122,200.51880520000122,200.72040210000705,201.00300749996677,4,1,0.4763068000320345,None,201.00337749999017,201.00948889995925,201.00948889995925,201.2136382999597,201.4218715999741,201.41595269995742,201.41598749998957,201.4218715999741,202.11714620003477,,,,,,,,,,,,,,,,,,,,,,,,,,,,,,,,,,,,,,,,,,,,,,,,,,,,,,,,,,,,,,sub139,motor,3,0,2024-12-20_13h46.09.441,ASRT_motor,2023.2.3,141.52639051660123,2024-12-20 13h59.12.588288 +0800,
,3,270,0,4,red,sequences/sub139_practice_sequence_00.csv,,,,,,,,,,,0,0,0,0,0,44,44,69,,,,,,,,,,,,,,,,,,,,,202.1229303999571,,,,,,,,,,,,,202.1176140999887,202.1229303999571,202.1229303999571,202.3243480999954,202.48592909995932,4,1,0.35659570002462715,None,202.48655779997353,202.4909976000199,202.4909976000199,202.69933890004177,202.90972180000972,202.90370170003735,202.90375229995698,202.90972180000972,203.6034768000245,203.60958799999207,,,,,,,,,,,,,,,,,,,,,,,,,,,,,,,,,,,,,,,,,,,,,,,,,,,,,,,,,,,,,sub139,motor,3,0,2024-12-20_13h46.09.441,ASRT_motor,2023.2.3,141.52639051660123,2024-12-20 13h59.12.588288 +0800,
,2,180,3,1,red,sequences/sub139_practice_sequence_00.csv,,,,,,,,,,,0,0,0,0,0,45,45,52,,,,,,,,,,,,,,,,,,,,,203.60958799999207,,,,,,,,,,,,,203.60401969996747,203.60958799999207,203.60958799999207,203.8111682999879,204.2159665999934,1,1,0.5999318000394851,None,204.21662630001083,204.22323200001847,204.22323200001847,204.4287111000158,204.6374665000476,204.6318771999795,204.6319287000224,204.6374665000476,205.332079899963,,,,,,,,,,,,,,,,,,,,,,,,,,,,,,,,,,,,,,,,,,,,,,,,,,,,,,,,,,,,,,sub139,motor,3,0,2024-12-20_13h46.09.441,ASRT_motor,2023.2.3,141.52639051660123,2024-12-20 13h59.12.588288 +0800,
,0,0,1,3,red,sequences/sub139_practice_sequence_00.csv,,,,,,,,,,,0,0,0,0,0,46,46,30,,,,,,,,,,,,,,,,,,,,,205.34147680003662,,,,,,,,,,,,,205.33286349999253,205.34147680003662,205.34147680003662,205.54695480002556,205.82688529998995,3,1,0.47827359999064356,None,205.8276452999562,205.83320859994274,205.83320859994274,206.03979009995237,206.24814539996441,206.24225509993266,206.2422959000105,206.24814539996441,206.94317380001303,,,,,,,,,,,,,,,,,,,,,,,,,,,,,,,,,,,,,,,,,,,,,,,,,,,,,,,,,,,,,,sub139,motor,3,0,2024-12-20_13h46.09.441,ASRT_motor,2023.2.3,141.52639051660123,2024-12-20 13h59.12.588288 +0800,
,2,180,3,1,red,sequences/sub139_practice_sequence_00.csv,,,,,,,,,,,0,0,0,0,0,47,47,29,,,,,,,,,,,,,,,,,,,,,206.94976119999774,,,,,,,,,,,,,206.94375580002088,206.94976119999774,206.94976119999774,207.15121419995558,207.3488683999749,1,1,0.3962337000994012,None,207.34946789999958,207.35472419997677,207.35472419997677,207.56053380004596,207.76885069999844,207.76334259996656,207.76338399993256,207.76885069999844,208.46446689998265,,,,,,,,,,,,,,,,,,,,,,,,,,,,,,,,,,,,,,,,,,,,,,,,,,,,,,,,,,,,,,sub139,motor,3,0,2024-12-20_13h46.09.441,ASRT_motor,2023.2.3,141.52639051660123,2024-12-20 13h59.12.588288 +0800,
,3,270,0,4,red,sequences/sub139_practice_sequence_00.csv,,,,,,,,,,,0,0,0,0,0,48,48,83,,,,,,,,,,,,,,,,,,,,,208.47116850002203,,,,,,,,,,,,,208.46513589995448,208.47116850002203,208.47116850002203,208.6720287000062,208.9238554999465,4,1,0.44988470000680536,None,208.92439770000055,208.9296782000456,208.9296782000456,209.13667869998608,209.3452990000369,209.339459800045,209.33948470000178,209.3452990000369,210.03984909993596,,,,,,,,,,,,,,,,,,,,,,,,,,,,,,,,,,,,,,,,,,,,,,,,,,,,,,,,,,,,,,sub139,motor,3,0,2024-12-20_13h46.09.441,ASRT_motor,2023.2.3,141.52639051660123,2024-12-20 13h59.12.588288 +0800,
,1,90,2,2,red,sequences/sub139_practice_sequence_00.csv,,,,,,,,,,,0,0,0,0,0,49,49,84,,,,,,,,,,,,,,,,,,,,,210.04665699996985,,,,,,,,,,,,,210.0402476999443,210.04665699996985,210.04665699996985,210.24819109996315,210.50787450000644,2,1,0.4551989999599755,None,210.5085825000424,210.51546040002722,210.51546040002722,210.72016589995474,210.92852650000714,210.9226319999434,210.9226732000243,210.92852650000714,211.62304959993344,,,,,,,,,,,,,,,,,,,,,,,,,,,,,,,,,,,,,,,,,,,,,,,,,,,,,,,,,,,,,,sub139,motor,3,0,2024-12-20_13h46.09.441,ASRT_motor,2023.2.3,141.52639051660123,2024-12-20 13h59.12.588288 +0800,
,1,90,2,2,red,sequences/sub139_practice_sequence_00.csv,,,,,,,,,,,0,0,0,0,0,50,50,79,,,,,,,,,,,,,,,,,,,,,211.63003320002463,,,,,,,,,,,,,211.62360359996092,211.63003320002463,211.63003320002463,211.83187100000214,212.04867499996908,2,1,0.41085730004124343,None,212.04945719998796,212.05650019994937,212.05650019994937,212.26182719995268,212.4699738000054,212.46369869995397,212.46371809998527,212.4699738000054,213.1652823999757,,,,,,,,,,,,,,,,,,,,,,,,,,,,,,,,,,,,,,,,,,,,,,,,,,,,,,,,,,,,,,sub139,motor,3,0,2024-12-20_13h46.09.441,ASRT_motor,2023.2.3,141.52639051660123,2024-12-20 13h59.12.588288 +0800,
,0,0,1,3,red,sequences/sub139_practice_sequence_00.csv,,,,,,,,,,,0,0,0,0,0,51,51,46,,,,,,,,,,,,,,,,,,,,,213.17356869997457,,,,,,,,,,,,,213.1661147000268,213.17356869997457,213.17356869997457,213.37317789997905,213.64676399994642,3,1,0.46965590002946556,None,213.64747069997247,213.65447740000673,213.65447740000673,213.8590357999783,214.06766689999495,214.06227640004363,214.06231569999363,214.06766689999495,214.76265179994516,214.76840339996852,,,,,,,,,,,,,,,,,,,,,,,,,,,,,,,,,,,,,,,,,,,,,,,,,,,,,,,,,,,,,sub139,motor,3,0,2024-12-20_13h46.09.441,ASRT_motor,2023.2.3,141.52639051660123,2024-12-20 13h59.12.588288 +0800,
,3,270,0,4,red,sequences/sub139_practice_sequence_00.csv,,,,,,,,,,,0,0,0,0,0,52,52,7,,,,,,,,,,,,,,,,,,,,,214.76840339996852,,,,,,,,,,,,,214.76307350001298,214.76840339996852,214.76840339996852,214.9702016999945,215.20954930002335,4,1,0.4373773999977857,None,215.21028170001227,215.21851279994007,215.21851279994007,215.4216410999652,215.63002000004053,215.6237533999374,215.62379089999013,215.63002000004053,216.32454770000186,,,,,,,,,,,,,,,,,,,,,,,,,,,,,,,,,,,,,,,,,,,,,,,,,,,,,,,,,,,,,,sub139,motor,3,0,2024-12-20_13h46.09.441,ASRT_motor,2023.2.3,141.52639051660123,2024-12-20 13h59.12.588288 +0800,
,3,270,0,4,red,sequences/sub139_practice_sequence_00.csv,,,,,,,,,,,0,0,0,0,0,53,53,21,,,,,,,,,,,,,,,,,,,,,216.33154369995464,,,,,,,,,,,,,216.32501979998779,216.33154369995464,216.33154369995464,216.53276099998038,216.71534510003403,4,1,0.37972239998634905,None,216.71589869994204,216.72094959998503,216.72094959998503,216.9290148,217.13677330000792,217.13112439995166,217.1311563999625,217.13677330000792,217.8321411999641,,,,,,,,,,,,,,,,,,,,,,,,,,,,,,,,,,,,,,,,,,,,,,,,,,,,,,,,,,,,,,sub139,motor,3,0,2024-12-20_13h46.09.441,ASRT_motor,2023.2.3,141.52639051660123,2024-12-20 13h59.12.588288 +0800,
,1,90,2,2,red,sequences/sub139_practice_sequence_00.csv,,,,,,,,,,,0,0,0,0,0,54,54,31,,,,,,,,,,,,,,,,,,,,,217.8376692000311,,,,,,,,,,,,,217.8330893999664,217.8376692000311,217.8376692000311,218.03942919999827,218.2983906000154,2,1,0.4551668999483809,None,218.29903959995136,218.3064797000261,218.3064797000261,218.51127330004238,218.72000139998272,218.71377679996658,218.71380539995153,218.72000139998272,219.41422609996516,,,,,,,,,,,,,,,,,,,,,,,,,,,,,,,,,,,,,,,,,,,,,,,,,,,,,,,,,,,,,,sub139,motor,3,0,2024-12-20_13h46.09.441,ASRT_motor,2023.2.3,141.52639051660123,2024-12-20 13h59.12.588288 +0800,
,0,0,1,3,red,sequences/sub139_practice_sequence_00.csv,,,,,,,,,,,0,0,0,0,0,55,55,71,,,,,,,,,,,,,,,,,,,,,219.42113130004145,,,,,,,,,,,,,219.41454779997002,219.42113130004145,219.42113130004145,219.62238069996238,219.92274029995315,3,1,0.4937513000331819,None,219.9230366999982,219.92800409998745,219.92800409998745,220.1363167000236,220.34505829995032,220.33928740001284,220.33934329997282,220.34505829995032,221.0396970999427,,,,,,,,,,,,,,,,,,,,,,,,,,,,,,,,,,,,,,,,,,,,,,,,,,,,,,,,,,,,,,sub139,motor,3,0,2024-12-20_13h46.09.441,ASRT_motor,2023.2.3,141.52639051660123,2024-12-20 13h59.12.588288 +0800,
,1,90,2,2,red,sequences/sub139_practice_sequence_00.csv,,,,,,,,,,,0,0,0,0,0,56,56,62,,,,,,,,,,,,,,,,,,,,,221.04651180002838,,,,,,,,,,,,,221.0403062000405,221.04651180002838,221.04651180002838,221.2482427000068,221.52749849995598,2,1,0.47393670002929866,None,221.52811029995792,221.53392740001436,221.53392740001436,221.74115100002382,221.94941090000793,221.94339230004698,221.94343039998785,221.94941090000793,222.64390739996452,,,,,,,,,,,,,,,,,,,,,,,,,,,,,,,,,,,,,,,,,,,,,,,,,,,,,,,,,,,,,,sub139,motor,3,0,2024-12-20_13h46.09.441,ASRT_motor,2023.2.3,141.52639051660123,2024-12-20 13h59.12.588288 +0800,
,1,90,2,2,red,sequences/sub139_practice_sequence_00.csv,,,,,,,,,,,0,0,0,0,0,57,57,42,,,,,,,,,,,,,,,,,,,,,222.65232600003947,,,,,,,,,,,,,222.64450789999682,222.65232600003947,222.65232600003947,222.85194970003795,222.9998497000197,2,1,0.3418864000122994,None,223.00054829998408,223.00701860000845,223.00701860000845,223.21302300004754,223.42161459999625,223.41557870001998,223.41561160003766,223.42161459999625,224.11615789995994,,,,,,,,,,,,,,,,,,,,,,,,,,,,,,,,,,,,,,,,,,,,,,,,,,,,,,,,,,,,,,sub139,motor,3,0,2024-12-20_13h46.09.441,ASRT_motor,2023.2.3,141.52639051660123,2024-12-20 13h59.12.588288 +0800,
,0,0,1,3,red,sequences/sub139_practice_sequence_00.csv,,,,,,,,,,,0,0,0,0,0,58,58,8,,,,,,,,,,,,,,,,,,,,,224.12256449996494,,,,,,,,,,,,,224.116837700014,224.12256449996494,224.12256449996494,224.32412589993328,224.57919680001214,3,1,0.4530859000515193,None,224.5807515999768,224.58973160001915,224.58973160001915,224.78929220000282,224.9977411000291,224.9916019999655,224.99163319997024,224.9977411000291,225.69252529996447,,,,,,,,,,,,,,,,,,,,,,,,,,,,,,,,,,,,,,,,,,,,,,,,,,,,,,,,,,,,,,sub139,motor,3,0,2024-12-20_13h46.09.441,ASRT_motor,2023.2.3,141.52639051660123,2024-12-20 13h59.12.588288 +0800,
,2,180,3,1,red,sequences/sub139_practice_sequence_00.csv,,,,,,,,,,,0,0,0,0,0,59,59,27,,,,,,,,,,,,,,,,,,,,,225.69901760003995,,,,,,,,,,,,,225.6931329999352,225.69901760003995,225.69901760003995,225.90071289998014,226.12433929997496,1,1,0.41995860007591546,None,226.12490419996902,226.1294227000326,226.1294227000326,226.33796060003806,226.5466234999476,226.5413477999391,226.54138519999105,226.5466234999476,227.24177099997178,227.24770730000455,,,,,,,,,,,,,,,,,,,,,,,,,,,,,,,,,,,,,,,,,,,,,,,,,,,,,,,,,,,,,sub139,motor,3,0,2024-12-20_13h46.09.441,ASRT_motor,2023.2.3,141.52639051660123,2024-12-20 13h59.12.588288 +0800,
,0,0,1,3,red,sequences/sub139_practice_sequence_00.csv,,,,,,,,,,,0,0,0,0,0,60,60,66,,,,,,,,,,,,,,,,,,,,,227.24770730000455,,,,,,,,,,,,,227.2423875000095,227.24770730000455,227.24770730000455,227.44941390003078,227.6998244000133,3,1,0.4453246999764815,None,227.70036549994256,227.705770200002,227.705770200002,227.91458240000065,228.122700399952,228.1171285000164,228.11717340000905,228.122700399952,228.81736099999398,,,,,,,,,,,,,,,,,,,,,,,,,,,,,,,,,,,,,,,,,,,,,,,,,,,,,,,,,,,,,,sub139,motor,3,0,2024-12-20_13h46.09.441,ASRT_motor,2023.2.3,141.52639051660123,2024-12-20 13h59.12.588288 +0800,
,0,0,1,3,red,sequences/sub139_practice_sequence_00.csv,,,,,,,,,,,0,0,0,0,0,61,61,49,,,,,,,,,,,,,,,,,,,,,228.8241986000212,,,,,,,,,,,,,228.81786319997627,228.8241986000212,228.8241986000212,229.02563619997818,229.27052559994627,3,1,0.4403182999230921,None,229.27117409999482,229.27674849994946,229.27674849994946,229.48371139995288,229.69198120001238,229.6860546999378,229.68608929996844,229.69198120001238,230.3869052999653,,,,,,,,,,,,,,,,,,,,,,,,,,,,,,,,,,,,,,,,,,,,,,,,,,,,,,,,,,,,,,sub139,motor,3,0,2024-12-20_13h46.09.441,ASRT_motor,2023.2.3,141.52639051660123,2024-12-20 13h59.12.588288 +0800,
,3,270,0,4,red,sequences/sub139_practice_sequence_00.csv,,,,,,,,,,,0,0,0,0,0,62,62,17,,,,,,,,,,,,,,,,,,,,,230.39379380003083,,,,,,,,,,,,,230.38733399997,230.39379380003083,230.39379380003083,230.59480289998464,230.81252189993393,4,1,0.41382700006943196,None,230.81322679994628,230.8198811999755,230.8198811999755,231.0256182999583,231.2343723999802,231.2286829999648,231.2287239000434,231.2343723999802,231.92932370002382,231.93564040004276,,,,,,,,,,,,,,,,,,,,,,,,,,,,,,,,,,,,,,,,,,,,,,,,,,,,,,,,,,,,,sub139,motor,3,0,2024-12-20_13h46.09.441,ASRT_motor,2023.2.3,141.52639051660123,2024-12-20 13h59.12.588288 +0800,
,0,0,1,3,red,sequences/sub139_practice_sequence_00.csv,,,,,,,,,,,0,0,0,0,0,63,63,2,,,,,,,,,,,,,,,,,,,,,231.93564040004276,,,,,,,,,,,,,231.92992160003632,231.93564040004276,231.93564040004276,232.13656859996263,232.40855589997955,3,1,0.4662460000254214,None,232.4089357999619,232.41393889999017,232.41393889999017,232.62218419997953,232.83084259997122,232.82411589997355,232.82413279998582,232.83084259997122,233.52554109995253,,,,,,,,,,,,,,,,,,,,,,,,,,,,,,,,,,,,,,,,,,,,,,,,,,,,,,,,,,,,,,sub139,motor,3,0,2024-12-20_13h46.09.441,ASRT_motor,2023.2.3,141.52639051660123,2024-12-20 13h59.12.588288 +0800,
,1,90,2,2,red,sequences/sub139_practice_sequence_00.csv,,,,,,,,,,,0,0,0,0,0,64,64,10,,,,,,,,,,,,,,,,,,,,,233.5323140999535,,,,,,,,,,,,,233.52618819999043,233.5323140999535,233.5323140999535,233.73388039995916,233.90334479999729,2,1,0.36527900001965463,None,233.90402559994254,233.90994809998665,233.90994809998665,234.1155173999723,234.32379509997554,234.31844329996966,234.31847930001095,234.32379509997554,235.01854509999976,,,,,,,,,,,,,,,,,,,,,,,,,,,,,,,,,,,,,,,,,,,,,,,,,,,,,,,,,,,,,,sub139,motor,3,0,2024-12-20_13h46.09.441,ASRT_motor,2023.2.3,141.52639051660123,2024-12-20 13h59.12.588288 +0800,
,2,180,3,1,red,sequences/sub139_practice_sequence_00.csv,,,,,,,,,,,0,0,0,0,0,65,65,43,,,,,,,,,,,,,,,,,,,,,235.02520889998414,,,,,,,,,,,,,235.0191187999444,235.02520889998414,235.02520889998414,235.2265674000373,235.4300993999932,1,1,0.3988819000078365,None,235.43072009994648,235.4374294000445,235.4374294000445,235.64353080000728,235.85164719994646,235.84602900000755,235.84607119997963,235.85164719994646,236.54671619995497,,,,,,,,,,,,,,,,,,,,,,,,,,,,,,,,,,,,,,,,,,,,,,,,,,,,,,,,,,,,,,sub139,motor,3,0,2024-12-20_13h46.09.441,ASRT_motor,2023.2.3,141.52639051660123,2024-12-20 13h59.12.588288 +0800,
,0,0,1,3,red,sequences/sub139_practice_sequence_00.csv,,,,,,,,,,,0,0,0,0,0,66,66,9,,,,,,,,,,,,,,,,,,,,,236.55451319995336,,,,,,,,,,,,,236.54733380000107,236.55451319995336,236.55451319995336,236.75453559996095,237.0845555999549,3,1,0.5246191000333056,None,237.08537570002954,237.09367179998662,237.09367179998662,237.29681259999052,237.5045682999771,237.4987443999853,237.49878439994063,237.5045682999771,238.19910420000087,,,,,,,,,,,,,,,,,,,,,,,,,,,,,,,,,,,,,,,,,,,,,,,,,,,,,,,,,,,,,,sub139,motor,3,0,2024-12-20_13h46.09.441,ASRT_motor,2023.2.3,141.52639051660123,2024-12-20 13h59.12.588288 +0800,
,0,0,1,3,red,sequences/sub139_practice_sequence_00.csv,,,,,,,,,,,0,0,0,0,0,67,67,76,,,,,,,,,,,,,,,,,,,,,238.2055929999333,,,,,,,,,,,,,238.1997181000188,238.2055929999333,238.2055929999333,238.4074509999482,238.53411250002682,3,1,0.32434210006613284,None,238.53484700003173,238.5402644999558,238.5402644999558,238.7472584999632,238.95572099997662,238.9501058999449,238.95014770003036,238.95572099997662,239.65044090000447,,,,,,,,,,,,,,,,,,,,,,,,,,,,,,,,,,,,,,,,,,,,,,,,,,,,,,,,,,,,,,sub139,motor,3,0,2024-12-20_13h46.09.441,ASRT_motor,2023.2.3,141.52639051660123,2024-12-20 13h59.12.588288 +0800,
,3,270,0,4,red,sequences/sub139_practice_sequence_00.csv,,,,,,,,,,,0,0,0,0,0,68,68,3,,,,,,,,,,,,,,,,,,,,,239.65718340000603,,,,,,,,,,,,,239.65105780004524,239.65718340000603,239.65718340000603,239.85856319998857,240.08236789994407,4,1,0.4199775999877602,None,240.08300790004432,240.0896496999776,240.0896496999776,240.29633389995433,240.50455730000976,240.49806260003243,240.49809589993674,240.50455730000976,241.19886280002538,,,,,,,,,,,,,,,,,,,,,,,,,,,,,,,,,,,,,,,,,,,,,,,,,,,,,,,,,,,,,,sub139,motor,3,0,2024-12-20_13h46.09.441,ASRT_motor,2023.2.3,141.52639051660123,2024-12-20 13h59.12.588288 +0800,
,3,270,0,4,red,sequences/sub139_practice_sequence_00.csv,,,,,,,,,,,0,0,0,0,0,69,69,58,,,,,,,,,,,,,,,,,,,,,241.20582619996276,,,,,,,,,,,,,241.1992709999904,241.20582619996276,241.20582619996276,241.4067032999592,241.54655510000885,4,1,0.3380714999511838,None,241.5468433999922,241.5523354000179,241.5523354000179,241.7616660000058,241.970131100039,241.96407630003523,241.96413830004167,241.970131100039,242.66491399996448,,,,,,,,,,,,,,,,,,,,,,,,,,,,,,,,,,,,,,,,,,,,,,,,,,,,,,,,,,,,,,sub139,motor,3,0,2024-12-20_13h46.09.441,ASRT_motor,2023.2.3,141.52639051660123,2024-12-20 13h59.12.588288 +0800,
,1,90,2,2,red,sequences/sub139_practice_sequence_00.csv,,,,,,,,,,,0,0,0,0,0,70,70,53,,,,,,,,,,,,,,,,,,,,,242.67105899995659,,,,,,,,,,,,,242.66546669998206,242.67105899995659,242.67105899995659,242.87266490003094,243.12003440002445,2,1,0.44242789992131293,None,243.12095489993226,243.13243669993244,243.13243669993244,243.33020720002241,243.53889229998458,243.53299929993227,243.5330272000283,243.53889229998458,244.2339563999558,,,,,,,,,,,,,,,,,,,,,,,,,,,,,,,,,,,,,,,,,,,,,,,,,,,,,,,,,,,,,,sub139,motor,3,0,2024-12-20_13h46.09.441,ASRT_motor,2023.2.3,141.52639051660123,2024-12-20 13h59.12.588288 +0800,
,2,180,3,1,red,sequences/sub139_practice_sequence_00.csv,,,,,,,,,,,0,0,0,0,0,71,71,12,,,,,,,,,,,,,,,,,,,,,244.2402226999402,,,,,,,,,,,,,244.23438939999323,244.2402226999402,244.2402226999402,244.4419743999606,244.63339079997968,1,1,0.3866259000496939,None,244.63403740001377,244.63993830000982,244.63993830000982,244.84464689996094,245.052956599975,245.04730129998643,245.04735140001867,245.052956599975,245.74753059993964,,,,,,,,,,,,,,,,,,,,,,,,,,,,,,,,,,,,,,,,,,,,,,,,,,,,,,,,,,,,,,sub139,motor,3,0,2024-12-20_13h46.09.441,ASRT_motor,2023.2.3,141.52639051660123,2024-12-20 13h59.12.588288 +0800,
,1,90,2,2,red,sequences/sub139_practice_sequence_00.csv,,,,,,,,,,,0,0,0,0,0,72,72,37,,,,,,,,,,,,,,,,,,,,,245.7542414999334,,,,,,,,,,,,,245.74811249994673,245.7542414999334,245.7542414999334,245.95533719996456,246.21482090000063,2,1,0.45397439994849265,None,246.21539619995747,246.2212099999888,246.2212099999888,246.427727399976,246.63603729999159,246.63078160001896,246.6308176999446,246.63603729999159,247.331030500005,247.33763199998066,,,,,,,,,,,,,,,,,,,,,,,,,,,,,,,,,,,,,,,,,,,,,,,,,,,,,,,,,,,,,sub139,motor,3,0,2024-12-20_13h46.09.441,ASRT_motor,2023.2.3,141.52639051660123,2024-12-20 13h59.12.588288 +0800,
,0,0,1,3,red,sequences/sub139_practice_sequence_00.csv,,,,,,,,,,,0,0,0,0,0,73,73,5,,,,,,,,,,,,,,,,,,,,,247.33763199998066,,,,,,,,,,,,,247.33147079998162,247.33763199998066,247.33763199998066,247.53863369999453,247.68882769998163,1,0,0.34669999999459833,None,247.68946559994947,247.69850729999598,247.69850729999598,247.90026040002704,248.10816609999165,248.10260209999979,248.1026436999673,248.10816609999165,248.80285800003912,,,,,,,,,,,,,,,,,,,,,,,,,,,,,,,,,,,,,,,,,,,,,,,,,,,,,,,,,,,,,,sub139,motor,3,0,2024-12-20_13h46.09.441,ASRT_motor,2023.2.3,141.52639051660123,2024-12-20 13h59.12.588288 +0800,
,3,270,0,4,red,sequences/sub139_practice_sequence_00.csv,,,,,,,,,,,0,0,0,0,0,74,74,38,,,,,,,,,,,,,,,,,,,,,248.81011329998728,,,,,,,,,,,,,248.80345909995958,248.81011329998728,248.81011329998728,249.0113849999616,249.23233989998698,4,1,0.4117271000286564,None,249.23308509995695,249.2397275000112,249.2397275000112,249.44151789997704,249.65041679993737,249.64466300001368,249.64470960001927,249.65041679993737,250.34577210003044,250.3524602999678,,,,,,,,,,,,,,,,,,,,,,,,,,,,,,,,,,,,,,,,,,,,,,,,,,,,,,,,,,,,,sub139,motor,3,0,2024-12-20_13h46.09.441,ASRT_motor,2023.2.3,141.52639051660123,2024-12-20 13h59.12.588288 +0800,
